70BCSV 	
// AQ6370B OPTICAL SPECTRUM ANALYZER //                 
25
"CTRWL",1500.000000
"SPAN", 400.000000
"START WL",1300.000000
"STOP WL",1700.000000
"WLFREQ", 0
"REFL",-44.2
"LSCL",10.0
"RESLN",1.000
"AVG",   1
"SMPLAUTO",      1
"SMPL",       2001
"SMPLINTVL",0.2000
"HIGH1"
"MEAS"
"LSUNT",0
"NMSKH","OFF"
"RESCOR",0
"RESPARM", 9859
"FREQPARM", 9859






"[TRACE DATA]"
1300.0000, -43.869
1300.2000, -43.772
1300.4000, -43.519
1300.6000, -43.465
1300.8000, -43.419
1301.0000, -43.218
1301.2000, -43.041
1301.4000, -42.580
1301.6000, -42.724
1301.8000, -42.392
1302.0000, -42.325
1302.2000, -41.975
1302.4000, -41.635
1302.6000, -41.744
1302.8000, -41.751
1303.0000, -41.644
1303.2000, -41.503
1303.4000, -41.543
1303.6000, -41.615
1303.8000, -41.575
1304.0000, -41.589
1304.2000, -41.574
1304.4000, -41.732
1304.6000, -41.885
1304.8000, -42.301
1305.0000, -42.354
1305.2000, -42.233
1305.4000, -42.653
1305.6000, -42.914
1305.8000, -43.087
1306.0000, -43.256
1306.2000, -43.270
1306.4000, -43.674
1306.6000, -43.909
1306.8000, -43.985
1307.0000, -44.188
1307.2000, -44.890
1307.4000, -45.043
1307.6000, -45.208
1307.8000, -45.750
1308.0000, -45.902
1308.2000, -46.287
1308.4000, -46.855
1308.6000, -47.165
1308.8000, -47.745
1309.0000, -48.381
1309.2000, -49.170
1309.4000, -49.776
1309.6000, -50.266
1309.8000, -51.090
1310.0000, -51.988
1310.2000, -53.113
1310.4000, -53.932
1310.6000, -54.683
1310.8000, -55.553
1311.0000, -56.648
1311.2000, -57.181
1311.4000, -57.665
1311.6000, -57.676
1311.8000, -57.617
1312.0000, -57.256
1312.2000, -57.057
1312.4000, -56.368
1312.6000, -55.751
1312.8000, -55.107
1313.0000, -54.743
1313.2000, -54.357
1313.4000, -53.878
1313.6000, -53.080
1313.8000, -53.411
1314.0000, -52.287
1314.2000, -51.489
1314.4000, -50.973
1314.6000, -50.438
1314.8000, -49.980
1315.0000, -49.925
1315.2000, -49.801
1315.4000, -49.679
1315.6000, -49.702
1315.8000, -49.345
1316.0000, -48.951
1316.2000, -48.511
1316.4000, -48.172
1316.6000, -48.274
1316.8000, -48.291
1317.0000, -49.021
1317.2000, -49.345
1317.4000, -49.580
1317.6000, -49.695
1317.8000, -49.420
1318.0000, -49.183
1318.2000, -48.741
1318.4000, -48.501
1318.6000, -48.650
1318.8000, -48.780
1319.0000, -48.874
1319.2000, -48.827
1319.4000, -48.902
1319.6000, -48.794
1319.8000, -48.830
1320.0000, -48.619
1320.2000, -48.542
1320.4000, -48.366
1320.6000, -48.444
1320.8000, -48.453
1321.0000, -48.172
1321.2000, -48.287
1321.4000, -48.436
1321.6000, -48.454
1321.8000, -48.576
1322.0000, -48.723
1322.2000, -48.653
1322.4000, -48.879
1322.6000, -49.057
1322.8000, -49.293
1323.0000, -49.338
1323.2000, -49.544
1323.4000, -49.658
1323.6000, -49.915
1323.8000, -49.967
1324.0000, -49.985
1324.2000, -50.237
1324.4000, -50.458
1324.6000, -50.555
1324.8000, -50.659
1325.0000, -50.731
1325.2000, -50.829
1325.4000, -50.938
1325.6000, -51.048
1325.8000, -51.223
1326.0000, -51.204
1326.2000, -51.319
1326.4000, -51.293
1326.6000, -51.493
1326.8000, -51.354
1327.0000, -51.465
1327.2000, -51.530
1327.4000, -51.919
1327.6000, -51.999
1327.8000, -52.369
1328.0000, -52.497
1328.2000, -52.752
1328.4000, -52.894
1328.6000, -53.166
1328.8000, -53.483
1329.0000, -53.833
1329.2000, -54.230
1329.4000, -54.706
1329.6000, -54.966
1329.8000, -55.348
1330.0000, -55.771
1330.2000, -56.224
1330.4000, -56.490
1330.6000, -56.963
1330.8000, -57.197
1331.0000, -57.612
1331.2000, -58.062
1331.4000, -58.476
1331.6000, -58.814
1331.8000, -59.439
1332.0000, -59.863
1332.2000, -60.217
1332.4000, -60.630
1332.6000, -60.737
1332.8000, -61.426
1333.0000, -62.126
1333.2000, -62.541
1333.4000, -63.070
1333.6000, -63.576
1333.8000, -64.253
1334.0000, -64.735
1334.2000, -65.204
1334.4000, -65.386
1334.6000, -65.401
1334.8000, -65.244
1335.0000, -65.106
1335.2000, -64.806
1335.4000, -63.960
1335.6000, -63.466
1335.8000, -62.724
1336.0000, -61.895
1336.2000, -61.416
1336.4000, -61.019
1336.6000, -60.147
1336.8000, -59.400
1337.0000, -58.852
1337.2000, -58.133
1337.4000, -57.819
1337.6000, -57.233
1337.8000, -56.516
1338.0000, -56.024
1338.2000, -55.635
1338.4000, -55.397
1338.6000, -54.781
1338.8000, -54.366
1339.0000, -53.948
1339.2000, -53.661
1339.4000, -53.509
1339.6000, -53.063
1339.8000, -52.802
1340.0000, -52.276
1340.2000, -52.214
1340.4000, -51.897
1340.6000, -51.614
1340.8000, -51.320
1341.0000, -51.080
1341.2000, -51.099
1341.4000, -50.885
1341.6000, -50.742
1341.8000, -50.636
1342.0000, -50.541
1342.2000, -50.433
1342.4000, -50.407
1342.6000, -50.384
1342.8000, -50.311
1343.0000, -50.239
1343.2000, -50.244
1343.4000, -50.027
1343.6000, -49.902
1343.8000, -49.872
1344.0000, -49.728
1344.2000, -49.741
1344.4000, -49.410
1344.6000, -49.284
1344.8000, -49.343
1345.0000, -49.222
1345.2000, -49.004
1345.4000, -48.813
1345.6000, -48.740
1345.8000, -48.580
1346.0000, -48.652
1346.2000, -48.592
1346.4000, -48.555
1346.6000, -48.628
1346.8000, -48.536
1347.0000, -48.516
1347.2000, -48.657
1347.4000, -48.586
1347.6000, -48.802
1347.8000, -48.736
1348.0000, -48.968
1348.2000, -49.020
1348.4000, -49.042
1348.6000, -49.292
1348.8000, -49.365
1349.0000, -49.301
1349.2000, -49.543
1349.4000, -49.910
1349.6000, -49.915
1349.8000, -50.236
1350.0000, -50.475
1350.2000, -50.353
1350.4000, -50.508
1350.6000, -50.719
1350.8000, -50.733
1351.0000, -50.704
1351.2000, -50.904
1351.4000, -51.033
1351.6000, -51.216
1351.8000, -51.412
1352.0000, -51.532
1352.2000, -51.744
1352.4000, -51.874
1352.6000, -52.204
1352.8000, -52.373
1353.0000, -52.770
1353.2000, -52.747
1353.4000, -53.216
1353.6000, -53.441
1353.8000, -54.002
1354.0000, -54.258
1354.2000, -55.054
1354.4000, -55.397
1354.6000, -56.032
1354.8000, -56.666
1355.0000, -57.064
1355.2000, -57.529
1355.4000, -58.114
1355.6000, -58.588
1355.8000, -59.132
1356.0000, -60.192
1356.2000, -60.718
1356.4000, -61.239
1356.6000, -62.237
1356.8000, -62.588
1357.0000, -63.409
1357.2000, -63.919
1357.4000, -64.224
1357.6000, -64.869
1357.8000, -64.797
1358.0000, -65.001
1358.2000, -64.746
1358.4000, -64.179
1358.6000, -63.902
1358.8000, -63.377
1359.0000, -62.652
1359.2000, -62.193
1359.4000, -61.559
1359.6000, -60.696
1359.8000, -60.196
1360.0000, -59.645
1360.2000, -58.791
1360.4000, -58.360
1360.6000, -58.133
1360.8000, -57.642
1361.0000, -57.080
1361.2000, -56.785
1361.4000, -56.322
1361.6000, -56.198
1361.8000, -55.986
1362.0000, -55.920
1362.2000, -55.621
1362.4000, -55.219
1362.6000, -54.808
1362.8000, -54.429
1363.0000, -53.939
1363.2000, -53.533
1363.4000, -53.293
1363.6000, -53.112
1363.8000, -52.876
1364.0000, -52.611
1364.2000, -52.620
1364.4000, -52.317
1364.6000, -51.995
1364.8000, -51.955
1365.0000, -51.533
1365.2000, -51.276
1365.4000, -50.791
1365.6000, -50.683
1365.8000, -50.694
1366.0000, -50.237
1366.2000, -50.062
1366.4000, -50.025
1366.6000, -49.920
1366.8000, -49.874
1367.0000, -49.873
1367.2000, -49.786
1367.4000, -49.790
1367.6000, -49.788
1367.8000, -49.721
1368.0000, -49.840
1368.2000, -49.795
1368.4000, -49.869
1368.6000, -49.785
1368.8000, -49.650
1369.0000, -49.775
1369.2000, -49.582
1369.4000, -49.498
1369.6000, -49.449
1369.8000, -49.484
1370.0000, -49.335
1370.2000, -49.381
1370.4000, -49.359
1370.6000, -49.358
1370.8000, -49.239
1371.0000, -49.264
1371.2000, -49.160
1371.4000, -49.131
1371.6000, -49.023
1371.8000, -48.624
1372.0000, -48.686
1372.2000, -48.916
1372.4000, -48.910
1372.6000, -49.037
1372.8000, -48.932
1373.0000, -49.057
1373.2000, -49.259
1373.4000, -49.251
1373.6000, -49.351
1373.8000, -49.351
1374.0000, -49.578
1374.2000, -49.795
1374.4000, -49.993
1374.6000, -50.198
1374.8000, -50.301
1375.0000, -50.407
1375.2000, -50.476
1375.4000, -50.744
1375.6000, -50.935
1375.8000, -51.035
1376.0000, -51.260
1376.2000, -51.527
1376.4000, -51.655
1376.6000, -51.886
1376.8000, -52.116
1377.0000, -52.259
1377.2000, -52.535
1377.4000, -52.728
1377.6000, -52.734
1377.8000, -53.239
1378.0000, -53.563
1378.2000, -53.943
1378.4000, -54.317
1378.6000, -54.972
1378.8000, -55.331
1379.0000, -55.702
1379.2000, -56.076
1379.4000, -56.227
1379.6000, -56.752
1379.8000, -57.224
1380.0000, -57.737
1380.2000, -58.591
1380.4000, -59.471
1380.6000, -60.104
1380.8000, -61.082
1381.0000, -61.760
1381.2000, -61.994
1381.4000, -62.241
1381.6000, -62.690
1381.8000, -62.632
1382.0000, -62.894
1382.2000, -63.259
1382.4000, -63.097
1382.6000, -62.683
1382.8000, -61.969
1383.0000, -61.464
1383.2000, -60.454
1383.4000, -59.763
1383.6000, -59.200
1383.8000, -58.318
1384.0000, -57.745
1384.2000, -57.045
1384.4000, -56.301
1384.6000, -55.707
1384.8000, -55.164
1385.0000, -54.451
1385.2000, -53.904
1385.4000, -53.450
1385.6000, -52.902
1385.8000, -52.472
1386.0000, -52.268
1386.2000, -51.804
1386.4000, -51.403
1386.6000, -51.238
1386.8000, -50.723
1387.0000, -50.418
1387.2000, -50.450
1387.4000, -50.251
1387.6000, -50.053
1387.8000, -50.191
1388.0000, -49.961
1388.2000, -49.929
1388.4000, -49.558
1388.6000, -49.310
1388.8000, -49.260
1389.0000, -48.830
1389.2000, -48.676
1389.4000, -48.471
1389.6000, -48.383
1389.8000, -48.070
1390.0000, -47.955
1390.2000, -47.936
1390.4000, -47.593
1390.6000, -47.421
1390.8000, -47.191
1391.0000, -47.163
1391.2000, -46.973
1391.4000, -46.744
1391.6000, -46.629
1391.8000, -46.777
1392.0000, -46.613
1392.2000, -46.772
1392.4000, -46.615
1392.6000, -46.626
1392.8000, -46.444
1393.0000, -46.270
1393.2000, -46.159
1393.4000, -46.011
1393.6000, -46.092
1393.8000, -46.047
1394.0000, -46.138
1394.2000, -46.111
1394.4000, -46.216
1394.6000, -46.402
1394.8000, -46.561
1395.0000, -46.671
1395.2000, -46.735
1395.4000, -46.730
1395.6000, -46.576
1395.8000, -46.723
1396.0000, -46.810
1396.2000, -47.029
1396.4000, -46.967
1396.6000, -47.056
1396.8000, -46.953
1397.0000, -46.892
1397.2000, -46.921
1397.4000, -46.895
1397.6000, -46.895
1397.8000, -47.095
1398.0000, -47.056
1398.2000, -47.198
1398.4000, -47.341
1398.6000, -47.232
1398.8000, -47.488
1399.0000, -47.629
1399.2000, -47.778
1399.4000, -47.931
1399.6000, -48.115
1399.8000, -48.563
1400.0000, -48.581
1400.2000, -48.757
1400.4000, -49.019
1400.6000, -49.406
1400.8000, -49.368
1401.0000, -49.625
1401.2000, -49.835
1401.4000, -50.125
1401.6000, -50.457
1401.8000, -50.725
1402.0000, -51.040
1402.2000, -51.468
1402.4000, -51.706
1402.6000, -51.983
1402.8000, -52.413
1403.0000, -53.116
1403.2000, -53.322
1403.4000, -53.749
1403.6000, -54.281
1403.8000, -54.590
1404.0000, -55.176
1404.2000, -55.754
1404.4000, -56.068
1404.6000, -56.722
1404.8000, -57.539
1405.0000, -58.042
1405.2000, -58.666
1405.4000, -59.221
1405.6000, -59.432
1405.8000, -59.890
1406.0000, -60.220
1406.2000, -60.411
1406.4000, -60.691
1406.6000, -60.810
1406.8000, -60.862
1407.0000, -60.379
1407.2000, -60.166
1407.4000, -59.427
1407.6000, -58.441
1407.8000, -57.973
1408.0000, -57.241
1408.2000, -56.410
1408.4000, -56.109
1408.6000, -55.467
1408.8000, -54.862
1409.0000, -54.503
1409.2000, -54.067
1409.4000, -53.632
1409.6000, -53.099
1409.8000, -52.600
1410.0000, -52.191
1410.2000, -51.899
1410.4000, -51.231
1410.6000, -50.959
1410.8000, -50.705
1411.0000, -50.385
1411.2000, -49.966
1411.4000, -49.540
1411.6000, -49.306
1411.8000, -49.036
1412.0000, -48.719
1412.2000, -48.418
1412.4000, -48.220
1412.6000, -47.891
1412.8000, -47.612
1413.0000, -47.268
1413.2000, -47.009
1413.4000, -46.762
1413.6000, -46.652
1413.8000, -46.593
1414.0000, -46.313
1414.2000, -46.274
1414.4000, -46.085
1414.6000, -46.083
1414.8000, -45.881
1415.0000, -45.721
1415.2000, -45.527
1415.4000, -45.424
1415.6000, -45.480
1415.8000, -45.376
1416.0000, -45.163
1416.2000, -45.092
1416.4000, -44.944
1416.6000, -44.950
1416.8000, -44.855
1417.0000, -44.764
1417.2000, -44.877
1417.4000, -44.647
1417.6000, -44.632
1417.8000, -44.516
1418.0000, -44.374
1418.2000, -44.363
1418.4000, -44.347
1418.6000, -44.268
1418.8000, -44.142
1419.0000, -44.206
1419.2000, -44.059
1419.4000, -44.158
1419.6000, -44.104
1419.8000, -44.014
1420.0000, -44.041
1420.2000, -43.978
1420.4000, -44.120
1420.6000, -43.986
1420.8000, -44.059
1421.0000, -44.028
1421.2000, -44.014
1421.4000, -43.978
1421.6000, -44.093
1421.8000, -44.223
1422.0000, -44.245
1422.2000, -44.341
1422.4000, -44.333
1422.6000, -44.533
1422.8000, -44.702
1423.0000, -44.878
1423.2000, -44.888
1423.4000, -45.031
1423.6000, -45.189
1423.8000, -45.384
1424.0000, -45.454
1424.2000, -45.565
1424.4000, -45.634
1424.6000, -45.723
1424.8000, -45.846
1425.0000, -45.972
1425.2000, -46.197
1425.4000, -46.235
1425.6000, -46.501
1425.8000, -46.582
1426.0000, -46.851
1426.2000, -47.129
1426.4000, -47.179
1426.6000, -47.338
1426.8000, -47.745
1427.0000, -47.852
1427.2000, -48.008
1427.4000, -48.434
1427.6000, -48.633
1427.8000, -48.821
1428.0000, -49.189
1428.2000, -49.589
1428.4000, -49.985
1428.6000, -50.325
1428.8000, -50.687
1429.0000, -51.217
1429.2000, -51.742
1429.4000, -52.004
1429.6000, -52.696
1429.8000, -53.245
1430.0000, -53.690
1430.2000, -54.368
1430.4000, -54.931
1430.6000, -55.495
1430.8000, -56.304
1431.0000, -56.944
1431.2000, -57.606
1431.4000, -58.107
1431.6000, -58.420
1431.8000, -58.792
1432.0000, -58.729
1432.2000, -58.647
1432.4000, -58.281
1432.6000, -57.831
1432.8000, -57.352
1433.0000, -56.797
1433.2000, -56.170
1433.4000, -55.575
1433.6000, -54.744
1433.8000, -54.242
1434.0000, -53.663
1434.2000, -52.918
1434.4000, -52.540
1434.6000, -51.797
1434.8000, -51.299
1435.0000, -50.845
1435.2000, -50.260
1435.4000, -50.102
1435.6000, -49.690
1435.8000, -49.165
1436.0000, -48.885
1436.2000, -48.483
1436.4000, -48.041
1436.6000, -47.675
1436.8000, -47.552
1437.0000, -47.138
1437.2000, -47.023
1437.4000, -46.690
1437.6000, -46.482
1437.8000, -46.155
1438.0000, -45.845
1438.2000, -45.776
1438.4000, -45.550
1438.6000, -45.273
1438.8000, -45.086
1439.0000, -44.741
1439.2000, -44.622
1439.4000, -44.440
1439.6000, -44.324
1439.8000, -44.012
1440.0000, -43.987
1440.2000, -43.617
1440.4000, -43.594
1440.6000, -43.417
1440.8000, -43.252
1441.0000, -43.022
1441.2000, -42.987
1441.4000, -42.702
1441.6000, -42.646
1441.8000, -42.561
1442.0000, -42.497
1442.2000, -42.364
1442.4000, -42.299
1442.6000, -42.202
1442.8000, -42.144
1443.0000, -42.079
1443.2000, -42.047
1443.4000, -41.863
1443.6000, -41.814
1443.8000, -41.825
1444.0000, -41.766
1444.2000, -41.782
1444.4000, -41.868
1444.6000, -41.632
1444.8000, -41.665
1445.0000, -41.628
1445.2000, -41.742
1445.4000, -41.766
1445.6000, -41.718
1445.8000, -41.716
1446.0000, -41.623
1446.2000, -41.586
1446.4000, -41.413
1446.6000, -41.532
1446.8000, -41.577
1447.0000, -41.506
1447.2000, -41.675
1447.4000, -41.674
1447.6000, -41.639
1447.8000, -41.557
1448.0000, -41.689
1448.2000, -41.710
1448.4000, -41.602
1448.6000, -41.732
1448.8000, -41.842
1449.0000, -41.794
1449.2000, -41.810
1449.4000, -42.032
1449.6000, -42.185
1449.8000, -42.265
1450.0000, -42.306
1450.2000, -42.428
1450.4000, -42.619
1450.6000, -42.689
1450.8000, -42.821
1451.0000, -42.959
1451.2000, -43.123
1451.4000, -43.198
1451.6000, -43.433
1451.8000, -43.565
1452.0000, -43.748
1452.2000, -43.986
1452.4000, -44.085
1452.6000, -44.294
1452.8000, -44.516
1453.0000, -44.675
1453.2000, -45.097
1453.4000, -45.171
1453.6000, -45.299
1453.8000, -45.598
1454.0000, -45.828
1454.2000, -46.206
1454.4000, -46.577
1454.6000, -46.887
1454.8000, -47.132
1455.0000, -47.714
1455.2000, -48.116
1455.4000, -48.318
1455.6000, -48.942
1455.8000, -49.191
1456.0000, -49.680
1456.2000, -50.267
1456.4000, -50.552
1456.6000, -51.484
1456.8000, -51.908
1457.0000, -52.538
1457.2000, -53.271
1457.4000, -53.846
1457.6000, -54.231
1457.8000, -54.722
1458.0000, -55.058
1458.2000, -55.413
1458.4000, -55.502
1458.6000, -55.524
1458.8000, -55.294
1459.0000, -55.005
1459.2000, -54.458
1459.4000, -53.835
1459.6000, -53.324
1459.8000, -52.710
1460.0000, -52.115
1460.2000, -51.643
1460.4000, -50.867
1460.6000, -50.271
1460.8000, -49.811
1461.0000, -49.048
1461.2000, -48.626
1461.4000, -47.988
1461.6000, -47.376
1461.8000, -47.258
1462.0000, -46.646
1462.2000, -46.312
1462.4000, -45.864
1462.6000, -45.592
1462.8000, -45.209
1463.0000, -44.861
1463.2000, -44.543
1463.4000, -44.380
1463.6000, -44.181
1463.8000, -43.792
1464.0000, -43.486
1464.2000, -43.236
1464.4000, -42.991
1464.6000, -42.745
1464.8000, -42.441
1465.0000, -42.308
1465.2000, -42.109
1465.4000, -41.842
1465.6000, -41.581
1465.8000, -41.588
1466.0000, -41.477
1466.2000, -41.228
1466.4000, -40.990
1466.6000, -40.833
1466.8000, -40.841
1467.0000, -40.694
1467.2000, -40.542
1467.4000, -40.522
1467.6000, -40.287
1467.8000, -40.371
1468.0000, -40.151
1468.2000, -40.112
1468.4000, -39.945
1468.6000, -39.887
1468.8000, -39.849
1469.0000, -39.743
1469.2000, -39.775
1469.4000, -39.578
1469.6000, -39.563
1469.8000, -39.576
1470.0000, -39.434
1470.2000, -39.309
1470.4000, -39.299
1470.6000, -39.394
1470.8000, -39.251
1471.0000, -39.286
1471.2000, -39.255
1471.4000, -39.293
1471.6000, -39.309
1471.8000, -39.343
1472.0000, -39.241
1472.2000, -39.320
1472.4000, -39.340
1472.6000, -39.398
1472.8000, -39.245
1473.0000, -39.255
1473.2000, -39.393
1473.4000, -39.536
1473.6000, -39.479
1473.8000, -39.596
1474.0000, -39.687
1474.2000, -39.783
1474.4000, -39.765
1474.6000, -39.822
1474.8000, -39.937
1475.0000, -40.094
1475.2000, -39.977
1475.4000, -40.168
1475.6000, -40.226
1475.8000, -40.405
1476.0000, -40.416
1476.2000, -40.481
1476.4000, -40.685
1476.6000, -40.782
1476.8000, -40.780
1477.0000, -41.139
1477.2000, -41.166
1477.4000, -41.340
1477.6000, -41.543
1477.8000, -41.621
1478.0000, -41.766
1478.2000, -41.989
1478.4000, -42.053
1478.6000, -42.343
1478.8000, -42.492
1479.0000, -42.614
1479.2000, -42.821
1479.4000, -42.931
1479.6000, -43.269
1479.8000, -43.603
1480.0000, -43.711
1480.2000, -44.050
1480.4000, -44.269
1480.6000, -44.655
1480.8000, -44.979
1481.0000, -45.355
1481.2000, -45.499
1481.4000, -46.005
1481.6000, -46.378
1481.8000, -46.759
1482.0000, -47.077
1482.2000, -47.506
1482.4000, -48.225
1482.6000, -48.426
1482.8000, -48.925
1483.0000, -49.642
1483.2000, -50.203
1483.4000, -50.606
1483.6000, -51.154
1483.8000, -51.693
1484.0000, -52.312
1484.2000, -52.749
1484.4000, -53.402
1484.6000, -54.035
1484.8000, -54.219
1485.0000, -54.957
1485.2000, -55.268
1485.4000, -55.662
1485.6000, -55.936
1485.8000, -56.159
1486.0000, -55.930
1486.2000, -55.635
1486.4000, -55.254
1486.6000, -54.817
1486.8000, -54.262
1487.0000, -53.539
1487.2000, -53.076
1487.4000, -52.548
1487.6000, -51.951
1487.8000, -51.225
1488.0000, -50.841
1488.2000, -50.048
1488.4000, -49.741
1488.6000, -49.281
1488.8000, -48.678
1489.0000, -48.503
1489.2000, -47.798
1489.4000, -47.370
1489.6000, -46.882
1489.8000, -46.664
1490.0000, -46.519
1490.2000, -46.223
1490.4000, -46.120
1490.6000, -45.884
1490.8000, -45.504
1491.0000, -45.097
1491.2000, -44.870
1491.4000, -44.670
1491.6000, -44.309
1491.8000, -44.019
1492.0000, -43.966
1492.2000, -43.863
1492.4000, -43.571
1492.6000, -43.377
1492.8000, -43.354
1493.0000, -43.022
1493.2000, -42.785
1493.4000, -42.488
1493.6000, -42.477
1493.8000, -42.265
1494.0000, -42.195
1494.2000, -42.213
1494.4000, -42.005
1494.6000, -41.852
1494.8000, -41.732
1495.0000, -41.481
1495.2000, -41.564
1495.4000, -41.543
1495.6000, -41.372
1495.8000, -41.232
1496.0000, -41.269
1496.2000, -41.198
1496.4000, -41.162
1496.6000, -41.137
1496.8000, -40.987
1497.0000, -40.899
1497.2000, -40.891
1497.4000, -40.897
1497.6000, -40.908
1497.8000, -40.718
1498.0000, -40.723
1498.2000, -40.725
1498.4000, -40.742
1498.6000, -40.563
1498.8000, -40.693
1499.0000, -40.593
1499.2000, -40.636
1499.4000, -40.503
1499.6000, -40.472
1499.8000, -40.513
1500.0000, -40.593
1500.2000, -40.620
1500.4000, -40.576
1500.6000, -40.587
1500.8000, -40.532
1501.0000, -40.615
1501.2000, -40.674
1501.4000, -40.650
1501.6000, -40.795
1501.8000, -40.737
1502.0000, -40.671
1502.2000, -40.816
1502.4000, -40.848
1502.6000, -40.920
1502.8000, -41.005
1503.0000, -40.965
1503.2000, -41.127
1503.4000, -41.202
1503.6000, -41.149
1503.8000, -41.351
1504.0000, -41.451
1504.2000, -41.408
1504.4000, -41.622
1504.6000, -41.807
1504.8000, -41.920
1505.0000, -41.879
1505.2000, -42.107
1505.4000, -42.216
1505.6000, -42.348
1505.8000, -42.437
1506.0000, -42.614
1506.2000, -42.774
1506.4000, -43.076
1506.6000, -43.103
1506.8000, -43.180
1507.0000, -43.429
1507.2000, -43.453
1507.4000, -43.775
1507.6000, -43.869
1507.8000, -44.097
1508.0000, -44.353
1508.2000, -44.721
1508.4000, -44.800
1508.6000, -45.027
1508.8000, -45.092
1509.0000, -45.399
1509.2000, -45.708
1509.4000, -45.949
1509.6000, -46.318
1509.8000, -46.650
1510.0000, -46.999
1510.2000, -47.174
1510.4000, -47.731
1510.6000, -47.780
1510.8000, -48.198
1511.0000, -48.753
1511.2000, -49.086
1511.4000, -49.599
1511.6000, -50.121
1511.8000, -50.465
1512.0000, -51.095
1512.2000, -51.512
1512.4000, -52.113
1512.6000, -52.548
1512.8000, -53.137
1513.0000, -53.920
1513.2000, -54.464
1513.4000, -55.150
1513.6000, -55.596
1513.8000, -56.326
1514.0000, -56.671
1514.2000, -56.881
1514.4000, -57.110
1514.6000, -57.089
1514.8000, -56.932
1515.0000, -56.602
1515.2000, -56.164
1515.4000, -55.398
1515.6000, -54.993
1515.8000, -54.522
1516.0000, -53.959
1516.2000, -53.549
1516.4000, -52.850
1516.6000, -52.433
1516.8000, -51.886
1517.0000, -51.223
1517.2000, -50.862
1517.4000, -50.398
1517.6000, -49.939
1517.8000, -49.539
1518.0000, -49.215
1518.2000, -48.914
1518.4000, -48.474
1518.6000, -48.054
1518.8000, -47.900
1519.0000, -47.318
1519.2000, -47.322
1519.4000, -46.833
1519.6000, -46.610
1519.8000, -46.280
1520.0000, -46.060
1520.2000, -45.910
1520.4000, -45.578
1520.6000, -45.265
1520.8000, -45.207
1521.0000, -44.922
1521.2000, -44.794
1521.4000, -44.536
1521.6000, -44.344
1521.8000, -44.148
1522.0000, -44.019
1522.2000, -43.839
1522.4000, -43.657
1522.6000, -43.498
1522.8000, -43.416
1523.0000, -43.307
1523.2000, -43.195
1523.4000, -42.995
1523.6000, -42.986
1523.8000, -42.753
1524.0000, -42.548
1524.2000, -42.500
1524.4000, -42.543
1524.6000, -42.350
1524.8000, -42.313
1525.0000, -42.166
1525.2000, -42.254
1525.4000, -41.961
1525.6000, -41.962
1525.8000, -42.016
1526.0000, -41.896
1526.2000, -41.781
1526.4000, -41.715
1526.6000, -41.713
1526.8000, -41.664
1527.0000, -41.638
1527.2000, -41.586
1527.4000, -41.591
1527.6000, -41.610
1527.8000, -41.523
1528.0000, -41.434
1528.2000, -41.482
1528.4000, -41.460
1528.6000, -41.363
1528.8000, -41.583
1529.0000, -41.380
1529.2000, -41.452
1529.4000, -41.503
1529.6000, -41.489
1529.8000, -41.636
1530.0000, -41.655
1530.2000, -41.619
1530.4000, -41.526
1530.6000, -41.436
1530.8000, -41.581
1531.0000, -41.637
1531.2000, -41.805
1531.4000, -41.811
1531.6000, -41.729
1531.8000, -41.670
1532.0000, -41.928
1532.2000, -41.934
1532.4000, -42.072
1532.6000, -42.179
1532.8000, -42.166
1533.0000, -42.178
1533.2000, -42.241
1533.4000, -42.336
1533.6000, -42.412
1533.8000, -42.511
1534.0000, -42.643
1534.2000, -42.725
1534.4000, -42.729
1534.6000, -42.950
1534.8000, -43.087
1535.0000, -43.203
1535.2000, -43.246
1535.4000, -43.333
1535.6000, -43.480
1535.8000, -43.758
1536.0000, -43.750
1536.2000, -43.939
1536.4000, -44.184
1536.6000, -44.385
1536.8000, -44.536
1537.0000, -44.754
1537.2000, -44.902
1537.4000, -45.263
1537.6000, -45.225
1537.8000, -45.649
1538.0000, -45.699
1538.2000, -46.017
1538.4000, -46.199
1538.6000, -46.586
1538.8000, -46.806
1539.0000, -46.935
1539.2000, -47.350
1539.4000, -47.559
1539.6000, -47.880
1539.8000, -48.418
1540.0000, -48.713
1540.2000, -49.022
1540.4000, -49.252
1540.6000, -49.776
1540.8000, -50.039
1541.0000, -50.512
1541.2000, -51.068
1541.4000, -51.483
1541.6000, -51.935
1541.8000, -52.336
1542.0000, -52.816
1542.2000, -53.534
1542.4000, -53.804
1542.6000, -54.410
1542.8000, -54.962
1543.0000, -55.522
1543.2000, -56.118
1543.4000, -56.466
1543.6000, -56.978
1543.8000, -57.306
1544.0000, -57.638
1544.2000, -57.903
1544.4000, -57.916
1544.6000, -57.815
1544.8000, -57.529
1545.0000, -57.241
1545.2000, -56.588
1545.4000, -56.179
1545.6000, -55.576
1545.8000, -55.047
1546.0000, -54.304
1546.2000, -53.618
1546.4000, -53.287
1546.6000, -52.626
1546.8000, -52.031
1547.0000, -51.756
1547.2000, -51.265
1547.4000, -50.611
1547.6000, -50.381
1547.8000, -50.017
1548.0000, -49.583
1548.2000, -49.373
1548.4000, -48.986
1548.6000, -48.566
1548.8000, -48.400
1549.0000, -48.175
1549.2000, -47.744
1549.4000, -47.325
1549.6000, -47.296
1549.8000, -46.865
1550.0000, -46.795
1550.2000, -46.383
1550.4000, -46.210
1550.6000, -46.143
1550.8000, -45.912
1551.0000, -45.860
1551.2000, -45.539
1551.4000, -45.363
1551.6000, -45.143
1551.8000, -45.013
1552.0000, -44.933
1552.2000, -44.592
1552.4000, -44.555
1552.6000, -44.467
1552.8000, -44.142
1553.0000, -44.040
1553.2000, -43.948
1553.4000, -44.025
1553.6000, -43.752
1553.8000, -43.541
1554.0000, -43.610
1554.2000, -43.347
1554.4000, -43.497
1554.6000, -43.215
1554.8000, -43.034
1555.0000, -43.012
1555.2000, -42.979
1555.4000, -42.797
1555.6000, -42.957
1555.8000, -42.758
1556.0000, -42.900
1556.2000, -42.696
1556.4000, -42.628
1556.6000, -42.487
1556.8000, -42.481
1557.0000, -42.280
1557.2000, -42.434
1557.4000, -42.486
1557.6000, -42.535
1557.8000, -42.413
1558.0000, -42.426
1558.2000, -42.278
1558.4000, -42.256
1558.6000, -42.396
1558.8000, -42.312
1559.0000, -42.287
1559.2000, -42.140
1559.4000, -42.221
1559.6000, -42.339
1559.8000, -42.121
1560.0000, -42.244
1560.2000, -42.344
1560.4000, -42.330
1560.6000, -42.447
1560.8000, -42.516
1561.0000, -42.624
1561.2000, -42.535
1561.4000, -42.633
1561.6000, -42.470
1561.8000, -42.522
1562.0000, -42.529
1562.2000, -42.710
1562.4000, -42.644
1562.6000, -42.744
1562.8000, -42.774
1563.0000, -42.899
1563.2000, -42.864
1563.4000, -43.016
1563.6000, -43.092
1563.8000, -43.107
1564.0000, -43.313
1564.2000, -43.337
1564.4000, -43.426
1564.6000, -43.476
1564.8000, -43.434
1565.0000, -43.711
1565.2000, -43.868
1565.4000, -43.858
1565.6000, -43.993
1565.8000, -44.204
1566.0000, -44.253
1566.2000, -44.400
1566.4000, -44.538
1566.6000, -44.741
1566.8000, -44.891
1567.0000, -44.901
1567.2000, -45.174
1567.4000, -45.476
1567.6000, -45.532
1567.8000, -45.588
1568.0000, -45.862
1568.2000, -46.149
1568.4000, -46.313
1568.6000, -46.310
1568.8000, -46.761
1569.0000, -46.917
1569.2000, -47.273
1569.4000, -47.400
1569.6000, -47.593
1569.8000, -47.951
1570.0000, -48.064
1570.2000, -48.626
1570.4000, -48.779
1570.6000, -49.225
1570.8000, -49.369
1571.0000, -50.034
1571.2000, -50.213
1571.4000, -50.456
1571.6000, -51.062
1571.8000, -51.334
1572.0000, -51.873
1572.2000, -52.093
1572.4000, -52.651
1572.6000, -52.998
1572.8000, -53.402
1573.0000, -54.207
1573.2000, -54.541
1573.4000, -55.144
1573.6000, -55.592
1573.8000, -56.314
1574.0000, -56.741
1574.2000, -57.275
1574.4000, -57.851
1574.6000, -58.193
1574.8000, -58.658
1575.0000, -58.875
1575.2000, -58.779
1575.4000, -58.761
1575.6000, -58.791
1575.8000, -58.301
1576.0000, -57.938
1576.2000, -57.511
1576.4000, -57.085
1576.6000, -56.419
1576.8000, -56.122
1577.0000, -55.641
1577.2000, -54.916
1577.4000, -54.702
1577.6000, -54.077
1577.8000, -53.571
1578.0000, -52.908
1578.2000, -52.760
1578.4000, -52.300
1578.6000, -52.018
1578.8000, -51.641
1579.0000, -51.063
1579.2000, -50.895
1579.4000, -50.501
1579.6000, -50.284
1579.8000, -49.790
1580.0000, -49.607
1580.2000, -49.333
1580.4000, -49.113
1580.6000, -48.819
1580.8000, -48.590
1581.0000, -48.493
1581.2000, -48.166
1581.4000, -47.967
1581.6000, -47.805
1581.8000, -47.461
1582.0000, -47.484
1582.2000, -46.995
1582.4000, -46.871
1582.6000, -46.840
1582.8000, -46.681
1583.0000, -46.341
1583.2000, -46.270
1583.4000, -46.192
1583.6000, -45.924
1583.8000, -45.926
1584.0000, -45.782
1584.2000, -45.624
1584.4000, -45.510
1584.6000, -45.477
1584.8000, -45.290
1585.0000, -45.336
1585.2000, -45.081
1585.4000, -44.965
1585.6000, -44.924
1585.8000, -44.689
1586.0000, -44.889
1586.2000, -44.773
1586.4000, -44.745
1586.6000, -44.317
1586.8000, -44.374
1587.0000, -44.342
1587.2000, -44.311
1587.4000, -44.316
1587.6000, -44.253
1587.8000, -44.384
1588.0000, -44.136
1588.2000, -44.154
1588.4000, -43.978
1588.6000, -44.151
1588.8000, -43.969
1589.0000, -43.967
1589.2000, -43.997
1589.4000, -43.892
1589.6000, -43.881
1589.8000, -43.880
1590.0000, -43.891
1590.2000, -43.897
1590.4000, -43.935
1590.6000, -43.904
1590.8000, -43.957
1591.0000, -44.076
1591.2000, -43.932
1591.4000, -44.016
1591.6000, -44.002
1591.8000, -43.938
1592.0000, -44.062
1592.2000, -44.107
1592.4000, -44.049
1592.6000, -44.039
1592.8000, -44.175
1593.0000, -44.063
1593.2000, -44.285
1593.4000, -44.162
1593.6000, -44.358
1593.8000, -44.350
1594.0000, -44.413
1594.2000, -44.516
1594.4000, -44.528
1594.6000, -44.637
1594.8000, -44.671
1595.0000, -44.847
1595.2000, -44.794
1595.4000, -44.877
1595.6000, -45.026
1595.8000, -45.126
1596.0000, -45.029
1596.2000, -45.251
1596.4000, -45.374
1596.6000, -45.352
1596.8000, -45.639
1597.0000, -45.629
1597.2000, -45.911
1597.4000, -45.909
1597.6000, -46.046
1597.8000, -46.308
1598.0000, -46.310
1598.2000, -46.514
1598.4000, -46.494
1598.6000, -46.819
1598.8000, -46.890
1599.0000, -46.995
1599.2000, -47.270
1599.4000, -47.319
1599.6000, -47.580
1599.8000, -47.816
1600.0000, -47.914
1600.2000, -48.011
1600.4000, -48.343
1600.6000, -48.408
1600.8000, -48.761
1601.0000, -49.044
1601.2000, -49.102
1601.4000, -49.572
1601.6000, -49.642
1601.8000, -49.937
1602.0000, -50.028
1602.2000, -50.314
1602.4000, -50.549
1602.6000, -51.012
1602.8000, -51.375
1603.0000, -52.126
1603.2000, -52.085
1603.4000, -52.581
1603.6000, -52.877
1603.8000, -53.145
1604.0000, -53.694
1604.2000, -53.992
1604.4000, -54.386
1604.6000, -55.055
1604.8000, -55.554
1605.0000, -55.783
1605.2000, -56.420
1605.4000, -56.804
1605.6000, -57.298
1605.8000, -57.907
1606.0000, -58.464
1606.2000, -58.995
1606.4000, -59.674
1606.6000, -60.092
1606.8000, -60.433
1607.0000, -60.954
1607.2000, -61.025
1607.4000, -61.442
1607.6000, -61.415
1607.8000, -61.247
1608.0000, -61.089
1608.2000, -60.657
1608.4000, -60.417
1608.6000, -59.894
1608.8000, -59.536
1609.0000, -59.127
1609.2000, -58.541
1609.4000, -58.210
1609.6000, -57.638
1609.8000, -57.335
1610.0000, -57.088
1610.2000, -56.741
1610.4000, -56.123
1610.6000, -55.687
1610.8000, -55.129
1611.0000, -54.866
1611.2000, -54.322
1611.4000, -53.957
1611.6000, -53.629
1611.8000, -53.415
1612.0000, -53.119
1612.2000, -52.569
1612.4000, -52.471
1612.6000, -51.858
1612.8000, -51.808
1613.0000, -51.434
1613.2000, -51.359
1613.4000, -50.934
1613.6000, -50.857
1613.8000, -50.651
1614.0000, -50.371
1614.2000, -50.120
1614.4000, -49.984
1614.6000, -49.724
1614.8000, -49.521
1615.0000, -49.362
1615.2000, -49.214
1615.4000, -49.029
1615.6000, -49.008
1615.8000, -48.794
1616.0000, -48.592
1616.2000, -48.561
1616.4000, -48.606
1616.6000, -48.316
1616.8000, -48.203
1617.0000, -48.085
1617.2000, -48.026
1617.4000, -47.815
1617.6000, -47.709
1617.8000, -47.729
1618.0000, -47.543
1618.2000, -47.575
1618.4000, -47.521
1618.6000, -47.336
1618.8000, -47.289
1619.0000, -47.207
1619.2000, -47.156
1619.4000, -47.066
1619.6000, -47.149
1619.8000, -46.953
1620.0000, -47.116
1620.2000, -46.924
1620.4000, -46.871
1620.6000, -46.756
1620.8000, -46.837
1621.0000, -46.670
1621.2000, -46.744
1621.4000, -46.752
1621.6000, -46.684
1621.8000, -46.583
1622.0000, -46.653
1622.2000, -46.546
1622.4000, -46.729
1622.6000, -46.839
1622.8000, -46.623
1623.0000, -46.636
1623.2000, -46.660
1623.4000, -46.738
1623.6000, -46.736
1623.8000, -46.731
1624.0000, -47.000
1624.2000, -46.815
1624.4000, -46.757
1624.6000, -46.923
1624.8000, -47.156
1625.0000, -46.983
1625.2000, -46.960
1625.4000, -46.895
1625.6000, -46.973
1625.8000, -47.183
1626.0000, -47.013
1626.2000, -47.099
1626.4000, -47.287
1626.6000, -47.163
1626.8000, -47.314
1627.0000, -47.394
1627.2000, -47.529
1627.4000, -47.513
1627.6000, -47.663
1627.8000, -47.537
1628.0000, -47.662
1628.2000, -47.879
1628.4000, -47.867
1628.6000, -48.097
1628.8000, -48.206
1629.0000, -48.165
1629.2000, -48.210
1629.4000, -48.237
1629.6000, -48.653
1629.8000, -48.838
1630.0000, -48.865
1630.2000, -48.999
1630.4000, -49.396
1630.6000, -49.782
1630.8000, -49.916
1631.0000, -49.689
1631.2000, -49.835
1631.4000, -49.887
1631.6000, -49.852
1631.8000, -50.133
1632.0000, -50.216
1632.2000, -50.531
1632.4000, -50.686
1632.6000, -50.829
1632.8000, -51.120
1633.0000, -50.952
1633.2000, -51.342
1633.4000, -51.626
1633.6000, -51.690
1633.8000, -51.843
1634.0000, -52.290
1634.2000, -52.276
1634.4000, -52.495
1634.6000, -52.647
1634.8000, -52.966
1635.0000, -53.222
1635.2000, -53.629
1635.4000, -53.733
1635.6000, -54.217
1635.8000, -54.193
1636.0000, -54.638
1636.2000, -54.785
1636.4000, -55.200
1636.6000, -55.481
1636.8000, -55.697
1637.0000, -56.090
1637.2000, -56.446
1637.4000, -56.933
1637.6000, -57.227
1637.8000, -57.855
1638.0000, -58.032
1638.2000, -58.489
1638.4000, -59.242
1638.6000, -59.280
1638.8000, -59.992
1639.0000, -60.427
1639.2000, -61.051
1639.4000, -61.544
1639.6000, -62.103
1639.8000, -62.399
1640.0000, -62.972
1640.2000, -63.386
1640.4000, -63.697
1640.6000, -64.164
1640.8000, -64.359
1641.0000, -64.633
1641.2000, -64.818
1641.4000, -64.515
1641.6000, -64.513
1641.8000, -64.107
1642.0000, -64.050
1642.2000, -63.448
1642.4000, -62.919
1642.6000, -62.641
1642.8000, -62.174
1643.0000, -61.446
1643.2000, -61.281
1643.4000, -60.595
1643.6000, -60.163
1643.8000, -59.515
1644.0000, -59.358
1644.2000, -58.922
1644.4000, -58.589
1644.6000, -58.119
1644.8000, -58.124
1645.0000, -57.560
1645.2000, -57.221
1645.4000, -57.057
1645.6000, -56.650
1645.8000, -56.405
1646.0000, -56.065
1646.2000, -55.766
1646.4000, -55.650
1646.6000, -55.346
1646.8000, -55.324
1647.0000, -54.913
1647.2000, -54.580
1647.4000, -54.418
1647.6000, -54.218
1647.8000, -53.859
1648.0000, -53.627
1648.2000, -53.456
1648.4000, -53.350
1648.6000, -53.172
1648.8000, -53.094
1649.0000, -53.003
1649.2000, -52.884
1649.4000, -52.563
1649.6000, -52.499
1649.8000, -52.341
1650.0000, -52.094
1650.2000, -52.079
1650.4000, -52.089
1650.6000, -51.996
1650.8000, -51.943
1651.0000, -51.756
1651.2000, -51.624
1651.4000, -51.794
1651.6000, -51.614
1651.8000, -51.494
1652.0000, -51.326
1652.2000, -51.338
1652.4000, -51.156
1652.6000, -51.181
1652.8000, -50.851
1653.0000, -50.910
1653.2000, -50.898
1653.4000, -50.989
1653.6000, -50.769
1653.8000, -50.894
1654.0000, -50.589
1654.2000, -50.733
1654.4000, -50.525
1654.6000, -50.395
1654.8000, -50.419
1655.0000, -50.454
1655.2000, -50.462
1655.4000, -50.278
1655.6000, -50.300
1655.8000, -50.406
1656.0000, -50.358
1656.2000, -50.388
1656.4000, -50.159
1656.6000, -50.216
1656.8000, -50.259
1657.0000, -50.409
1657.2000, -50.137
1657.4000, -50.237
1657.6000, -50.431
1657.8000, -50.391
1658.0000, -50.555
1658.2000, -50.256
1658.4000, -50.446
1658.6000, -50.395
1658.8000, -50.531
1659.0000, -50.502
1659.2000, -50.488
1659.4000, -50.501
1659.6000, -50.478
1659.8000, -50.715
1660.0000, -50.620
1660.2000, -50.831
1660.4000, -50.693
1660.6000, -50.689
1660.8000, -50.759
1661.0000, -51.046
1661.2000, -50.958
1661.4000, -50.889
1661.6000, -51.131
1661.8000, -50.995
1662.0000, -51.352
1662.2000, -51.262
1662.4000, -51.292
1662.6000, -51.429
1662.8000, -51.678
1663.0000, -51.421
1663.2000, -51.579
1663.4000, -51.907
1663.6000, -51.919
1663.8000, -51.964
1664.0000, -51.993
1664.2000, -52.112
1664.4000, -52.141
1664.6000, -52.347
1664.8000, -52.382
1665.0000, -52.437
1665.2000, -52.597
1665.4000, -52.748
1665.6000, -52.759
1665.8000, -52.947
1666.0000, -53.181
1666.2000, -52.938
1666.4000, -53.203
1666.6000, -53.396
1666.8000, -53.580
1667.0000, -53.844
1667.2000, -53.947
1667.4000, -53.939
1667.6000, -54.118
1667.8000, -54.367
1668.0000, -54.508
1668.2000, -54.766
1668.4000, -54.692
1668.6000, -55.163
1668.8000, -55.185
1669.0000, -55.896
1669.2000, -55.713
1669.4000, -56.185
1669.6000, -56.504
1669.8000, -56.689
1670.0000, -56.714
1670.2000, -56.784
1670.4000, -57.417
1670.6000, -57.428
1670.8000, -57.559
1671.0000, -57.881
1671.2000, -58.352
1671.4000, -58.562
1671.6000, -58.744
1671.8000, -59.045
1672.0000, -59.182
1672.2000, -59.885
1672.4000, -60.193
1672.6000, -60.558
1672.8000, -61.158
1673.0000, -61.890
1673.2000, -61.619
1673.4000, -62.123
1673.6000, -63.865
1673.8000, -63.874
1674.0000, -63.542
1674.2000, -64.789
1674.4000, -65.364
1674.6000, -65.419
1674.8000, -67.800
1675.0000, -66.133
1675.2000, -68.104
1675.4000, -66.920
1675.6000, -68.172
1675.8000, -66.904
1676.0000, -69.089
1676.2000, -68.540
1676.4000, -68.375
1676.6000, -67.345
1676.8000, -66.000
1677.0000, -67.875
1677.2000, -70.656
1677.4000, -65.101
1677.6000, -67.018
1677.8000, -64.363
1678.0000, -65.593
1678.2000, -63.116
1678.4000, -64.015
1678.6000, -63.245
1678.8000, -63.603
1679.0000, -62.393
1679.2000, -62.406
1679.4000, -61.972
1679.6000, -61.795
1679.8000, -61.524
1680.0000, -60.930
1680.2000, -60.619
1680.4000, -60.794
1680.6000, -59.835
1680.8000, -59.802
1681.0000, -59.506
1681.2000, -59.380
1681.4000, -58.894
1681.6000, -59.413
1681.8000, -57.983
1682.0000, -58.743
1682.2000, -57.965
1682.4000, -57.995
1682.6000, -57.790
1682.8000, -57.429
1683.0000, -57.347
1683.2000, -57.194
1683.4000, -56.980
1683.6000, -56.786
1683.8000, -57.070
1684.0000, -56.862
1684.2000, -56.351
1684.4000, -56.623
1684.6000, -56.240
1684.8000, -55.743
1685.0000, -55.863
1685.2000, -55.304
1685.4000, -55.873
1685.6000, -55.612
1685.8000, -55.592
1686.0000, -55.060
1686.2000, -55.272
1686.4000, -54.996
1686.6000, -54.970
1686.8000, -54.750
1687.0000, -55.023
1687.2000, -54.867
1687.4000, -54.832
1687.6000, -54.915
1687.8000, -54.745
1688.0000, -54.621
1688.2000, -54.543
1688.4000, -54.956
1688.6000, -54.480
1688.8000, -54.597
1689.0000, -54.493
1689.2000, -54.415
1689.4000, -54.243
1689.6000, -54.537
1689.8000, -54.309
1690.0000, -54.078
1690.2000, -54.197
1690.4000, -54.059
1690.6000, -54.202
1690.8000, -54.220
1691.0000, -54.080
1691.2000, -54.286
1691.4000, -54.447
1691.6000, -54.088
1691.8000, -54.424
1692.0000, -54.132
1692.2000, -53.735
1692.4000, -54.478
1692.6000, -54.149
1692.8000, -54.239
1693.0000, -54.145
1693.2000, -53.821
1693.4000, -54.572
1693.6000, -54.324
1693.8000, -54.385
1694.0000, -54.255
1694.2000, -54.337
1694.4000, -53.930
1694.6000, -54.225
1694.8000, -54.429
1695.0000, -54.243
1695.2000, -54.261
1695.4000, -54.397
1695.6000, -54.391
1695.8000, -54.442
1696.0000, -54.464
1696.2000, -54.818
1696.4000, -54.762
1696.6000, -54.794
1696.8000, -54.883
1697.0000, -55.010
1697.2000, -54.807
1697.4000, -54.494
1697.6000, -55.340
1697.8000, -55.471
1698.0000, -55.492
1698.2000, -54.869
1698.4000, -55.712
1698.6000, -54.810
1698.8000, -56.073
1699.0000, -55.446
1699.2000, -56.035
1699.4000, -55.940
1699.6000, -56.156
1699.8000, -55.581
1700.0000, -56.045
