70BCSV 	
// AQ6370B OPTICAL SPECTRUM ANALYZER //                 
25
"CTRWL",1300.000000
"SPAN", 800.000000
"START WL", 900.000000
"STOP WL",1700.000000
"WLFREQ", 0
"REFL",-17.2
"LSCL",10.0
"RESLN",0.500
"AVG",   1
"SMPLAUTO",      1
"SMPL",       8001
"SMPLINTVL",0.1000
"HIGH1"
"MEAS"
"LSUNT",0
"NMSKH","OFF"
"RESCOR",0
"RESPARM", 9740
"FREQPARM", 9740






"[TRACE DATA]"
 900.0000,-210.000
 900.1000,-210.000
 900.2000, -72.928
 900.3000, -74.611
 900.4000,-210.000
 900.5000, -80.526
 900.6000,-210.000
 900.7000, -74.339
 900.8000, -77.580
 900.9000,-210.000
 901.0000, -77.742
 901.1000, -71.879
 901.2000,-210.000
 901.3000,-210.000
 901.4000,-210.000
 901.5000, -80.686
 901.6000, -73.139
 901.7000,-210.000
 901.8000,-210.000
 901.9000, -75.748
 902.0000,-210.000
 902.1000,-210.000
 902.2000, -73.079
 902.3000,-210.000
 902.4000,-210.000
 902.5000, -80.221
 902.6000,-210.000
 902.7000, -74.305
 902.8000,-210.000
 902.9000,-210.000
 903.0000, -75.868
 903.1000, -82.959
 903.2000, -78.473
 903.3000, -73.513
 903.4000, -78.542
 903.5000, -78.535
 903.6000,-210.000
 903.7000,-210.000
 903.8000, -75.811
 903.9000, -81.832
 904.0000, -75.925
 904.1000,-210.000
 904.2000,-210.000
 904.3000, -76.363
 904.4000,-210.000
 904.5000,-210.000
 904.6000,-210.000
 904.7000, -79.698
 904.8000, -73.480
 904.9000, -73.519
 905.0000,-210.000
 905.1000, -78.649
 905.2000,-210.000
 905.3000, -78.448
 905.4000, -77.621
 905.5000,-210.000
 905.6000, -73.554
 905.7000,-210.000
 905.8000,-210.000
 905.9000, -83.715
 906.0000, -73.485
 906.1000, -73.364
 906.2000,-210.000
 906.3000,-210.000
 906.4000,-210.000
 906.5000,-210.000
 906.6000,-210.000
 906.7000, -76.240
 906.8000, -73.582
 906.9000,-210.000
 907.0000, -81.663
 907.1000, -78.772
 907.2000,-210.000
 907.3000,-210.000
 907.4000,-210.000
 907.5000, -74.852
 907.6000, -74.744
 907.7000, -77.657
 907.8000,-210.000
 907.9000,-210.000
 908.0000, -72.486
 908.1000,-210.000
 908.2000,-210.000
 908.3000, -74.797
 908.4000,-210.000
 908.5000,-210.000
 908.6000,-210.000
 908.7000, -76.747
 908.8000,-210.000
 908.9000, -71.815
 909.0000, -87.833
 909.1000, -73.804
 909.2000,-210.000
 909.3000,-210.000
 909.4000, -76.035
 909.5000, -78.535
 909.6000,-210.000
 909.7000,-210.000
 909.8000, -85.064
 909.9000,-210.000
 910.0000, -78.179
 910.1000, -78.301
 910.2000,-210.000
 910.3000,-210.000
 910.4000, -87.570
 910.5000, -83.432
 910.6000,-210.000
 910.7000, -74.732
 910.8000,-210.000
 910.9000, -87.376
 911.0000, -79.711
 911.1000, -75.000
 911.2000, -80.218
 911.3000,-210.000
 911.4000,-210.000
 911.5000, -80.497
 911.6000, -85.677
 911.7000, -86.378
 911.8000, -89.216
 911.9000, -77.822
 912.0000,-210.000
 912.1000,-210.000
 912.2000, -77.429
 912.3000, -82.845
 912.4000, -82.009
 912.5000, -85.925
 912.6000, -81.746
 912.7000, -76.835
 912.8000,-210.000
 912.9000, -79.733
 913.0000,-210.000
 913.1000, -80.030
 913.2000, -81.918
 913.3000, -83.136
 913.4000, -83.073
 913.5000,-210.000
 913.6000, -82.317
 913.7000, -77.750
 913.8000, -94.167
 913.9000,-210.000
 914.0000,-210.000
 914.1000, -78.829
 914.2000, -83.488
 914.3000,-210.000
 914.4000, -74.760
 914.5000,-210.000
 914.6000,-210.000
 914.7000, -76.188
 914.8000,-210.000
 914.9000, -77.839
 915.0000,-210.000
 915.1000, -78.520
 915.2000, -81.458
 915.3000,-210.000
 915.4000,-210.000
 915.5000, -76.216
 915.6000,-210.000
 915.7000, -86.291
 915.8000, -75.421
 915.9000,-210.000
 916.0000, -88.118
 916.1000, -88.266
 916.2000,-210.000
 916.3000, -83.979
 916.4000, -81.237
 916.5000, -77.775
 916.6000, -79.685
 916.7000, -84.468
 916.8000, -82.821
 916.9000, -83.085
 917.0000, -76.465
 917.1000,-210.000
 917.2000,-210.000
 917.3000, -79.951
 917.4000,-210.000
 917.5000,-210.000
 917.6000,-210.000
 917.7000, -90.839
 917.8000, -81.010
 917.9000, -85.049
 918.0000, -74.150
 918.1000, -89.352
 918.2000, -79.392
 918.3000, -76.776
 918.4000, -79.935
 918.5000, -87.056
 918.6000,-210.000
 918.7000, -76.973
 918.8000, -79.019
 918.9000, -76.174
 919.0000,-210.000
 919.1000,-210.000
 919.2000, -77.226
 919.3000, -84.092
 919.4000, -78.451
 919.5000,-210.000
 919.6000, -75.951
 919.7000, -80.261
 919.8000,-210.000
 919.9000, -85.567
 920.0000,-210.000
 920.1000, -82.212
 920.2000,-210.000
 920.3000,-210.000
 920.4000,-210.000
 920.5000, -77.800
 920.6000, -79.715
 920.7000, -77.155
 920.8000,-210.000
 920.9000, -79.599
 921.0000,-210.000
 921.1000, -79.993
 921.2000, -78.146
 921.3000, -76.640
 921.4000, -93.926
 921.5000, -82.338
 921.6000, -76.835
 921.7000, -82.380
 921.8000, -76.866
 921.9000,-210.000
 922.0000,-210.000
 922.1000, -86.845
 922.2000,-210.000
 922.3000, -80.304
 922.4000,-210.000
 922.5000, -79.387
 922.6000,-210.000
 922.7000, -92.536
 922.8000, -80.798
 922.9000, -79.593
 923.0000, -80.587
 923.1000,-210.000
 923.2000,-210.000
 923.3000,-210.000
 923.4000, -77.409
 923.5000, -87.319
 923.6000, -79.309
 923.7000, -84.296
 923.8000,-210.000
 923.9000, -82.425
 924.0000, -77.980
 924.1000,-210.000
 924.2000,-210.000
 924.3000, -78.810
 924.4000, -85.816
 924.5000,-210.000
 924.6000, -80.377
 924.7000,-210.000
 924.8000,-210.000
 924.9000, -83.099
 925.0000, -77.474
 925.1000, -81.754
 925.2000,-210.000
 925.3000,-210.000
 925.4000, -82.304
 925.5000, -72.990
 925.6000,-210.000
 925.7000, -85.074
 925.8000, -78.834
 925.9000,-210.000
 926.0000,-210.000
 926.1000, -83.925
 926.2000, -76.772
 926.3000, -82.090
 926.4000,-210.000
 926.5000,-210.000
 926.6000, -78.500
 926.7000, -78.694
 926.8000,-210.000
 926.9000, -86.616
 927.0000,-210.000
 927.1000,-210.000
 927.2000, -80.826
 927.3000, -76.400
 927.4000,-210.000
 927.5000,-210.000
 927.6000, -80.411
 927.7000,-210.000
 927.8000,-210.000
 927.9000, -79.920
 928.0000, -80.251
 928.1000,-210.000
 928.2000, -80.894
 928.3000, -99.129
 928.4000,-210.000
 928.5000,-210.000
 928.6000, -87.500
 928.7000, -81.498
 928.8000, -78.191
 928.9000,-210.000
 929.0000,-210.000
 929.1000, -83.427
 929.2000,-210.000
 929.3000, -77.048
 929.4000,-210.000
 929.5000,-210.000
 929.6000, -78.878
 929.7000, -82.886
 929.8000, -80.061
 929.9000,-210.000
 930.0000, -96.697
 930.1000,-210.000
 930.2000,-210.000
 930.3000,-210.000
 930.4000, -74.719
 930.5000,-210.000
 930.6000,-210.000
 930.7000, -81.166
 930.8000,-210.000
 930.9000,-210.000
 931.0000, -86.512
 931.1000,-210.000
 931.2000,-210.000
 931.3000, -82.591
 931.4000,-210.000
 931.5000,-210.000
 931.6000, -77.227
 931.7000,-210.000
 931.8000, -79.950
 931.9000, -80.267
 932.0000,-210.000
 932.1000,-210.000
 932.2000, -81.560
 932.3000, -85.810
 932.4000,-210.000
 932.5000, -81.423
 932.6000, -80.879
 932.7000, -88.545
 932.8000,-210.000
 932.9000, -86.116
 933.0000, -79.156
 933.1000, -83.032
 933.2000, -90.249
 933.3000, -82.251
 933.4000, -86.016
 933.5000,-210.000
 933.6000,-210.000
 933.7000, -81.069
 933.8000, -79.646
 933.9000, -77.970
 934.0000,-210.000
 934.1000, -78.285
 934.2000,-210.000
 934.3000, -90.064
 934.4000,-210.000
 934.5000, -77.425
 934.6000, -83.339
 934.7000, -77.816
 934.8000,-210.000
 934.9000, -77.503
 935.0000,-210.000
 935.1000, -81.209
 935.2000,-210.000
 935.3000, -76.958
 935.4000,-210.000
 935.5000,-210.000
 935.6000, -78.051
 935.7000, -89.400
 935.8000,-210.000
 935.9000,-210.000
 936.0000,-210.000
 936.1000, -76.334
 936.2000, -85.491
 936.3000,-210.000
 936.4000, -82.943
 936.5000, -81.687
 936.6000,-210.000
 936.7000, -73.714
 936.8000,-210.000
 936.9000,-210.000
 937.0000, -82.642
 937.1000,-210.000
 937.2000, -76.743
 937.3000, -86.151
 937.4000, -83.713
 937.5000, -88.534
 937.6000, -79.412
 937.7000,-210.000
 937.8000,-210.000
 937.9000, -81.424
 938.0000,-210.000
 938.1000, -77.428
 938.2000, -80.753
 938.3000, -87.954
 938.4000, -78.683
 938.5000, -76.859
 938.6000, -76.738
 938.7000, -77.073
 938.8000, -79.992
 938.9000, -76.994
 939.0000, -83.371
 939.1000, -79.249
 939.2000, -78.305
 939.3000, -80.461
 939.4000, -80.025
 939.5000, -85.140
 939.6000,-210.000
 939.7000, -80.177
 939.8000, -85.736
 939.9000, -83.322
 940.0000, -82.165
 940.1000, -83.760
 940.2000, -84.002
 940.3000, -78.311
 940.4000,-210.000
 940.5000,-210.000
 940.6000, -86.899
 940.7000,-210.000
 940.8000, -79.836
 940.9000, -81.371
 941.0000, -82.386
 941.1000, -85.541
 941.2000, -85.625
 941.3000,-210.000
 941.4000, -81.281
 941.5000, -80.799
 941.6000,-210.000
 941.7000, -88.304
 941.8000,-210.000
 941.9000, -93.386
 942.0000,-210.000
 942.1000,-210.000
 942.2000, -79.673
 942.3000,-210.000
 942.4000, -81.931
 942.5000, -83.157
 942.6000, -83.203
 942.7000, -82.305
 942.8000, -81.699
 942.9000, -80.661
 943.0000,-210.000
 943.1000, -85.955
 943.2000, -80.983
 943.3000, -77.241
 943.4000,-210.000
 943.5000,-210.000
 943.6000, -82.163
 943.7000, -89.900
 943.8000, -84.928
 943.9000, -80.443
 944.0000,-210.000
 944.1000, -78.569
 944.2000,-210.000
 944.3000, -79.631
 944.4000, -84.534
 944.5000, -82.264
 944.6000, -76.816
 944.7000,-210.000
 944.8000,-210.000
 944.9000, -80.917
 945.0000,-210.000
 945.1000, -78.443
 945.2000, -78.688
 945.3000, -81.464
 945.4000, -93.853
 945.5000, -75.771
 945.6000, -79.121
 945.7000, -77.459
 945.8000, -78.753
 945.9000, -77.196
 946.0000, -73.459
 946.1000, -72.608
 946.2000, -75.907
 946.3000, -78.672
 946.4000, -75.512
 946.5000, -76.593
 946.6000, -76.984
 946.7000,-210.000
 946.8000, -79.861
 946.9000, -78.278
 947.0000, -79.172
 947.1000, -78.652
 947.2000, -77.231
 947.3000, -83.111
 947.4000,-210.000
 947.5000, -88.667
 947.6000, -81.794
 947.7000, -78.598
 947.8000, -81.260
 947.9000, -87.247
 948.0000, -81.293
 948.1000, -80.251
 948.2000, -97.374
 948.3000,-210.000
 948.4000, -77.262
 948.5000, -77.729
 948.6000,-210.000
 948.7000,-210.000
 948.8000,-210.000
 948.9000, -81.385
 949.0000, -82.236
 949.1000, -84.965
 949.2000, -82.598
 949.3000,-210.000
 949.4000, -81.582
 949.5000, -82.028
 949.6000, -84.566
 949.7000, -86.854
 949.8000,-210.000
 949.9000,-210.000
 950.0000,-210.000
 950.1000, -81.728
 950.2000, -79.287
 950.3000, -82.755
 950.4000, -87.472
 950.5000,-210.000
 950.6000,-210.000
 950.7000, -90.791
 950.8000,-210.000
 950.9000,-210.000
 951.0000, -85.122
 951.1000,-210.000
 951.2000, -79.337
 951.3000,-210.000
 951.4000, -82.684
 951.5000,-210.000
 951.6000, -80.558
 951.7000, -82.931
 951.8000, -88.181
 951.9000, -82.735
 952.0000,-210.000
 952.1000,-210.000
 952.2000,-210.000
 952.3000, -79.530
 952.4000, -79.963
 952.5000, -79.832
 952.6000,-210.000
 952.7000, -83.099
 952.8000, -86.912
 952.9000, -78.970
 953.0000, -95.426
 953.1000, -79.737
 953.2000,-210.000
 953.3000,-210.000
 953.4000,-210.000
 953.5000, -83.246
 953.6000,-210.000
 953.7000,-210.000
 953.8000, -87.110
 953.9000, -81.734
 954.0000, -82.891
 954.1000,-210.000
 954.2000, -80.451
 954.3000,-210.000
 954.4000, -84.098
 954.5000, -82.602
 954.6000, -77.439
 954.7000, -82.872
 954.8000,-210.000
 954.9000, -85.172
 955.0000, -84.203
 955.1000, -84.287
 955.2000, -80.881
 955.3000, -86.566
 955.4000, -82.707
 955.5000,-210.000
 955.6000, -91.010
 955.7000, -82.236
 955.8000, -88.975
 955.9000, -86.346
 956.0000, -84.187
 956.1000,-210.000
 956.2000, -83.973
 956.3000, -91.216
 956.4000, -81.576
 956.5000,-210.000
 956.6000, -84.601
 956.7000, -82.896
 956.8000, -80.281
 956.9000, -86.593
 957.0000,-210.000
 957.1000, -80.365
 957.2000,-210.000
 957.3000, -81.358
 957.4000, -79.054
 957.5000, -81.730
 957.6000, -83.375
 957.7000,-210.000
 957.8000, -87.373
 957.9000, -84.142
 958.0000,-210.000
 958.1000, -83.118
 958.2000, -91.441
 958.3000, -82.008
 958.4000,-210.000
 958.5000, -84.815
 958.6000,-210.000
 958.7000, -92.982
 958.8000, -83.335
 958.9000,-210.000
 959.0000, -80.986
 959.1000, -84.709
 959.2000, -88.864
 959.3000, -82.975
 959.4000, -91.445
 959.5000, -85.114
 959.6000, -78.881
 959.7000,-210.000
 959.8000, -82.717
 959.9000, -82.623
 960.0000,-210.000
 960.1000,-210.000
 960.2000, -78.183
 960.3000,-210.000
 960.4000, -81.365
 960.5000, -83.853
 960.6000,-210.000
 960.7000, -80.791
 960.8000, -95.306
 960.9000,-210.000
 961.0000, -76.924
 961.1000,-210.000
 961.2000,-210.000
 961.3000, -82.172
 961.4000, -81.273
 961.5000, -79.438
 961.6000,-210.000
 961.7000,-210.000
 961.8000,-210.000
 961.9000, -88.644
 962.0000, -82.531
 962.1000, -86.450
 962.2000,-210.000
 962.3000,-210.000
 962.4000, -83.530
 962.5000, -89.866
 962.6000, -83.110
 962.7000, -82.399
 962.8000, -78.879
 962.9000, -89.288
 963.0000,-210.000
 963.1000, -89.040
 963.2000, -82.411
 963.3000, -97.018
 963.4000, -86.223
 963.5000, -88.202
 963.6000,-210.000
 963.7000, -82.427
 963.8000,-210.000
 963.9000, -81.439
 964.0000, -83.723
 964.1000, -77.407
 964.2000,-210.000
 964.3000, -76.089
 964.4000, -91.522
 964.5000, -95.564
 964.6000, -82.515
 964.7000, -94.808
 964.8000,-210.000
 964.9000,-210.000
 965.0000, -78.275
 965.1000, -84.744
 965.2000, -82.190
 965.3000, -81.097
 965.4000, -94.356
 965.5000,-210.000
 965.6000, -86.016
 965.7000, -82.771
 965.8000,-210.000
 965.9000, -85.210
 966.0000, -87.492
 966.1000, -81.563
 966.2000,-210.000
 966.3000, -85.925
 966.4000, -90.059
 966.5000, -80.530
 966.6000,-210.000
 966.7000, -80.442
 966.8000,-210.000
 966.9000, -80.618
 967.0000, -84.999
 967.1000,-210.000
 967.2000, -76.869
 967.3000,-210.000
 967.4000, -81.985
 967.5000, -89.723
 967.6000, -85.804
 967.7000, -81.933
 967.8000, -82.938
 967.9000,-210.000
 968.0000, -82.561
 968.1000, -80.917
 968.2000,-210.000
 968.3000, -86.366
 968.4000, -80.088
 968.5000, -84.185
 968.6000, -90.993
 968.7000, -83.060
 968.8000, -88.768
 968.9000, -89.746
 969.0000,-210.000
 969.1000, -82.130
 969.2000,-210.000
 969.3000, -82.656
 969.4000, -86.005
 969.5000,-210.000
 969.6000, -84.483
 969.7000, -90.191
 969.8000,-210.000
 969.9000, -82.041
 970.0000, -85.830
 970.1000, -86.372
 970.2000, -90.511
 970.3000,-210.000
 970.4000, -84.131
 970.5000,-210.000
 970.6000, -88.219
 970.7000, -82.343
 970.8000, -84.988
 970.9000,-210.000
 971.0000, -83.713
 971.1000, -84.195
 971.2000,-210.000
 971.3000, -84.750
 971.4000,-210.000
 971.5000, -91.407
 971.6000, -81.859
 971.7000,-210.000
 971.8000, -81.009
 971.9000, -91.033
 972.0000,-210.000
 972.1000, -82.038
 972.2000, -80.228
 972.3000,-210.000
 972.4000, -83.165
 972.5000, -79.837
 972.6000,-210.000
 972.7000, -81.408
 972.8000, -83.481
 972.9000,-210.000
 973.0000, -93.585
 973.1000, -89.110
 973.2000, -79.176
 973.3000, -83.188
 973.4000,-210.000
 973.5000, -85.028
 973.6000, -84.823
 973.7000,-210.000
 973.8000, -84.107
 973.9000, -80.662
 974.0000, -82.304
 974.1000, -90.039
 974.2000, -91.561
 974.3000,-210.000
 974.4000, -84.416
 974.5000, -79.413
 974.6000,-210.000
 974.7000, -83.775
 974.8000,-210.000
 974.9000, -82.947
 975.0000, -95.018
 975.1000,-210.000
 975.2000, -82.356
 975.3000, -87.714
 975.4000, -83.325
 975.5000, -88.263
 975.6000, -81.295
 975.7000,-210.000
 975.8000, -83.561
 975.9000, -90.115
 976.0000, -88.132
 976.1000,-210.000
 976.2000, -80.369
 976.3000, -83.139
 976.4000, -85.635
 976.5000, -79.630
 976.6000,-210.000
 976.7000,-210.000
 976.8000,-210.000
 976.9000, -80.584
 977.0000, -75.362
 977.1000, -77.671
 977.2000,-210.000
 977.3000, -78.644
 977.4000, -90.406
 977.5000, -83.597
 977.6000,-210.000
 977.7000, -84.536
 977.8000,-210.000
 977.9000, -77.384
 978.0000, -80.674
 978.1000, -96.640
 978.2000,-210.000
 978.3000,-210.000
 978.4000, -72.520
 978.5000,-210.000
 978.6000,-210.000
 978.7000, -76.423
 978.8000, -77.468
 978.9000,-210.000
 979.0000, -74.453
 979.1000,-210.000
 979.2000,-210.000
 979.3000, -77.345
 979.4000,-210.000
 979.5000, -95.425
 979.6000, -78.118
 979.7000,-210.000
 979.8000,-210.000
 979.9000, -77.273
 980.0000,-210.000
 980.1000,-210.000
 980.2000, -78.082
 980.3000,-210.000
 980.4000, -87.136
 980.5000, -75.165
 980.6000,-210.000
 980.7000,-210.000
 980.8000, -85.122
 980.9000,-210.000
 981.0000, -88.424
 981.1000,-210.000
 981.2000,-210.000
 981.3000, -81.725
 981.4000, -77.297
 981.5000, -81.285
 981.6000, -81.309
 981.7000,-210.000
 981.8000, -76.209
 981.9000, -79.128
 982.0000, -82.777
 982.1000,-210.000
 982.2000,-210.000
 982.3000, -78.152
 982.4000,-210.000
 982.5000,-210.000
 982.6000, -78.300
 982.7000, -83.795
 982.8000, -84.219
 982.9000, -84.836
 983.0000, -82.222
 983.1000,-210.000
 983.2000, -83.788
 983.3000, -77.923
 983.4000,-210.000
 983.5000, -85.808
 983.6000, -78.171
 983.7000,-210.000
 983.8000, -78.593
 983.9000, -75.548
 984.0000,-210.000
 984.1000,-210.000
 984.2000, -79.514
 984.3000, -79.458
 984.4000,-210.000
 984.5000,-210.000
 984.6000, -80.717
 984.7000,-210.000
 984.8000, -78.560
 984.9000,-210.000
 985.0000, -91.925
 985.1000, -83.346
 985.2000, -85.131
 985.3000, -82.036
 985.4000, -81.152
 985.5000, -82.934
 985.6000,-210.000
 985.7000,-210.000
 985.8000, -82.839
 985.9000, -81.583
 986.0000,-210.000
 986.1000, -83.332
 986.2000,-210.000
 986.3000, -82.391
 986.4000, -90.178
 986.5000,-210.000
 986.6000, -82.475
 986.7000,-210.000
 986.8000, -83.860
 986.9000,-210.000
 987.0000, -87.379
 987.1000, -85.829
 987.2000,-210.000
 987.3000, -83.430
 987.4000, -81.012
 987.5000, -81.845
 987.6000, -80.116
 987.7000, -82.830
 987.8000, -85.249
 987.9000,-210.000
 988.0000,-210.000
 988.1000, -79.983
 988.2000, -89.549
 988.3000, -82.283
 988.4000, -82.480
 988.5000, -78.148
 988.6000,-210.000
 988.7000, -87.007
 988.8000,-210.000
 988.9000,-210.000
 989.0000, -81.200
 989.1000, -87.221
 989.2000,-210.000
 989.3000, -79.718
 989.4000,-210.000
 989.5000, -97.166
 989.6000, -82.042
 989.7000,-210.000
 989.8000,-210.000
 989.9000, -80.468
 990.0000, -85.228
 990.1000, -82.383
 990.2000, -96.442
 990.3000,-210.000
 990.4000, -81.967
 990.5000, -89.878
 990.6000,-210.000
 990.7000, -87.364
 990.8000,-101.828
 990.9000, -86.727
 991.0000, -88.262
 991.1000, -85.146
 991.2000,-210.000
 991.3000, -79.345
 991.4000,-210.000
 991.5000, -87.310
 991.6000,-210.000
 991.7000, -84.954
 991.8000, -83.927
 991.9000, -91.780
 992.0000,-210.000
 992.1000, -82.551
 992.2000, -84.006
 992.3000,-210.000
 992.4000, -88.256
 992.5000,-210.000
 992.6000, -82.578
 992.7000, -83.091
 992.8000,-210.000
 992.9000,-210.000
 993.0000,-210.000
 993.1000, -82.423
 993.2000, -85.203
 993.3000, -77.229
 993.4000, -83.457
 993.5000,-210.000
 993.6000,-210.000
 993.7000, -92.547
 993.8000,-210.000
 993.9000,-210.000
 994.0000,-210.000
 994.1000, -86.454
 994.2000, -81.816
 994.3000, -81.581
 994.4000,-210.000
 994.5000,-210.000
 994.6000, -85.868
 994.7000, -90.355
 994.8000,-210.000
 994.9000, -75.515
 995.0000, -83.509
 995.1000, -81.927
 995.2000, -99.911
 995.3000, -80.136
 995.4000, -92.328
 995.5000, -98.594
 995.6000, -81.448
 995.7000, -79.418
 995.8000,-210.000
 995.9000,-210.000
 996.0000,-210.000
 996.1000,-210.000
 996.2000, -84.842
 996.3000,-210.000
 996.4000, -86.104
 996.5000, -80.195
 996.6000, -86.508
 996.7000,-210.000
 996.8000, -82.843
 996.9000,-210.000
 997.0000, -81.330
 997.1000,-210.000
 997.2000,-210.000
 997.3000,-210.000
 997.4000, -82.254
 997.5000, -97.355
 997.6000,-210.000
 997.7000,-210.000
 997.8000, -84.646
 997.9000, -79.525
 998.0000, -83.800
 998.1000, -86.903
 998.2000,-210.000
 998.3000,-210.000
 998.4000, -88.429
 998.5000,-109.484
 998.6000, -85.306
 998.7000,-210.000
 998.8000, -92.012
 998.9000, -81.067
 999.0000, -90.235
 999.1000, -86.899
 999.2000, -87.210
 999.3000, -82.989
 999.4000,-210.000
 999.5000, -83.666
 999.6000, -81.308
 999.7000, -88.308
 999.8000, -83.638
 999.9000, -81.179
1000.0000,-210.000
1000.1000,-210.000
1000.2000, -76.055
1000.3000, -83.375
1000.4000,-210.000
1000.5000,-210.000
1000.6000, -77.044
1000.7000,-210.000
1000.8000, -83.288
1000.9000,-210.000
1001.0000, -77.832
1001.1000,-210.000
1001.2000, -81.982
1001.3000,-210.000
1001.4000,-210.000
1001.5000,-210.000
1001.6000,-210.000
1001.7000, -84.281
1001.8000, -84.689
1001.9000, -84.672
1002.0000, -86.021
1002.1000, -86.770
1002.2000, -88.363
1002.3000, -84.937
1002.4000,-210.000
1002.5000, -87.630
1002.6000,-210.000
1002.7000, -83.765
1002.8000, -85.426
1002.9000, -85.550
1003.0000, -84.607
1003.1000,-210.000
1003.2000, -86.882
1003.3000,-210.000
1003.4000,-210.000
1003.5000, -91.083
1003.6000, -81.089
1003.7000,-210.000
1003.8000, -85.897
1003.9000, -81.826
1004.0000, -89.907
1004.1000,-210.000
1004.2000,-210.000
1004.3000, -90.167
1004.4000, -80.857
1004.5000, -82.503
1004.6000, -86.141
1004.7000,-210.000
1004.8000,-210.000
1004.9000, -82.987
1005.0000, -81.036
1005.1000, -85.415
1005.2000, -85.266
1005.3000, -82.966
1005.4000, -81.911
1005.5000, -90.016
1005.6000, -83.786
1005.7000, -87.719
1005.8000,-210.000
1005.9000,-210.000
1006.0000, -91.429
1006.1000, -82.610
1006.2000, -91.805
1006.3000, -84.059
1006.4000, -86.505
1006.5000,-210.000
1006.6000,-210.000
1006.7000,-210.000
1006.8000, -90.706
1006.9000,-210.000
1007.0000, -81.663
1007.1000, -80.776
1007.2000, -80.577
1007.3000,-210.000
1007.4000,-210.000
1007.5000, -84.021
1007.6000, -83.503
1007.7000, -80.505
1007.8000, -80.803
1007.9000,-210.000
1008.0000, -85.913
1008.1000, -82.234
1008.2000,-210.000
1008.3000, -81.653
1008.4000, -84.349
1008.5000, -88.730
1008.6000, -87.362
1008.7000, -87.536
1008.8000,-210.000
1008.9000, -83.665
1009.0000, -83.842
1009.1000, -82.453
1009.2000, -81.052
1009.3000,-210.000
1009.4000, -87.308
1009.5000, -81.382
1009.6000, -78.884
1009.7000,-210.000
1009.8000,-210.000
1009.9000, -84.569
1010.0000, -85.859
1010.1000,-210.000
1010.2000, -82.802
1010.3000, -85.440
1010.4000, -81.704
1010.5000, -87.551
1010.6000, -83.098
1010.7000, -79.811
1010.8000,-210.000
1010.9000, -79.774
1011.0000,-210.000
1011.1000,-210.000
1011.2000, -80.006
1011.3000,-210.000
1011.4000,-210.000
1011.5000, -95.732
1011.6000, -84.764
1011.7000, -86.036
1011.8000, -84.278
1011.9000, -82.793
1012.0000,-210.000
1012.1000, -87.047
1012.2000, -90.766
1012.3000, -83.095
1012.4000, -82.716
1012.5000, -98.758
1012.6000, -83.727
1012.7000, -88.297
1012.8000,-210.000
1012.9000, -80.613
1013.0000, -86.386
1013.1000, -83.717
1013.2000,-210.000
1013.3000, -87.863
1013.4000, -80.913
1013.5000, -84.266
1013.6000,-210.000
1013.7000, -80.160
1013.8000, -84.467
1013.9000,-210.000
1014.0000, -80.720
1014.1000, -80.188
1014.2000,-210.000
1014.3000, -78.533
1014.4000, -90.806
1014.5000,-210.000
1014.6000, -80.494
1014.7000,-210.000
1014.8000, -81.271
1014.9000,-100.719
1015.0000, -81.303
1015.1000, -81.812
1015.2000,-210.000
1015.3000,-210.000
1015.4000, -80.005
1015.5000, -80.292
1015.6000,-210.000
1015.7000, -80.313
1015.8000, -92.906
1015.9000, -83.303
1016.0000, -88.781
1016.1000,-210.000
1016.2000, -91.026
1016.3000,-210.000
1016.4000, -85.670
1016.5000, -82.862
1016.6000, -85.538
1016.7000, -97.054
1016.8000, -78.966
1016.9000, -83.781
1017.0000,-210.000
1017.1000, -93.167
1017.2000, -90.835
1017.3000, -86.845
1017.4000, -90.954
1017.5000, -82.200
1017.6000, -84.068
1017.7000, -80.718
1017.8000, -86.192
1017.9000, -84.366
1018.0000,-210.000
1018.1000, -81.613
1018.2000, -81.763
1018.3000, -84.988
1018.4000, -93.964
1018.5000,-210.000
1018.6000, -83.224
1018.7000, -79.314
1018.8000, -90.002
1018.9000,-210.000
1019.0000, -87.288
1019.1000,-210.000
1019.2000, -78.911
1019.3000, -80.301
1019.4000,-210.000
1019.5000,-210.000
1019.6000, -86.950
1019.7000,-210.000
1019.8000, -81.350
1019.9000, -83.935
1020.0000,-210.000
1020.1000, -84.419
1020.2000, -85.726
1020.3000, -83.241
1020.4000,-210.000
1020.5000, -79.918
1020.6000,-210.000
1020.7000,-210.000
1020.8000, -81.083
1020.9000, -83.866
1021.0000, -83.595
1021.1000,-210.000
1021.2000, -86.178
1021.3000,-210.000
1021.4000,-210.000
1021.5000, -89.436
1021.6000, -90.223
1021.7000,-210.000
1021.8000, -81.667
1021.9000, -90.900
1022.0000, -88.604
1022.1000, -84.654
1022.2000, -86.869
1022.3000, -80.775
1022.4000, -89.627
1022.5000, -87.100
1022.6000, -84.174
1022.7000,-210.000
1022.8000, -82.962
1022.9000, -78.050
1023.0000,-210.000
1023.1000, -87.448
1023.2000, -89.070
1023.3000, -87.597
1023.4000,-210.000
1023.5000, -85.438
1023.6000, -82.225
1023.7000, -85.714
1023.8000,-210.000
1023.9000, -83.462
1024.0000, -80.859
1024.1000, -84.670
1024.2000, -82.956
1024.3000,-210.000
1024.4000,-210.000
1024.5000,-210.000
1024.6000, -82.759
1024.7000, -82.743
1024.8000, -84.768
1024.9000,-210.000
1025.0000,-210.000
1025.1000, -81.659
1025.2000, -81.179
1025.3000,-210.000
1025.4000, -87.958
1025.5000, -89.124
1025.6000, -82.406
1025.7000, -85.218
1025.8000,-210.000
1025.9000, -86.533
1026.0000, -94.872
1026.1000,-210.000
1026.2000, -79.800
1026.3000, -93.130
1026.4000, -84.321
1026.5000,-210.000
1026.6000, -90.935
1026.7000, -80.180
1026.8000, -83.656
1026.9000, -86.821
1027.0000, -82.084
1027.1000, -90.132
1027.2000, -79.091
1027.3000, -83.302
1027.4000, -91.593
1027.5000,-210.000
1027.6000, -79.694
1027.7000, -79.657
1027.8000, -84.107
1027.9000,-210.000
1028.0000, -83.582
1028.1000, -90.515
1028.2000,-210.000
1028.3000, -79.663
1028.4000, -87.368
1028.5000,-210.000
1028.6000, -82.529
1028.7000, -81.644
1028.8000, -80.918
1028.9000, -94.934
1029.0000,-210.000
1029.1000, -86.685
1029.2000, -78.055
1029.3000, -79.767
1029.4000,-210.000
1029.5000, -82.476
1029.6000, -81.338
1029.7000, -83.909
1029.8000,-210.000
1029.9000,-210.000
1030.0000, -83.315
1030.1000,-210.000
1030.2000, -80.797
1030.3000,-210.000
1030.4000, -92.262
1030.5000,-210.000
1030.6000, -92.812
1030.7000, -85.514
1030.8000, -81.644
1030.9000, -84.015
1031.0000, -90.648
1031.1000,-210.000
1031.2000, -87.734
1031.3000, -91.818
1031.4000, -84.341
1031.5000, -83.142
1031.6000, -88.723
1031.7000, -88.863
1031.8000, -81.087
1031.9000, -86.004
1032.0000, -84.924
1032.1000, -84.817
1032.2000, -81.903
1032.3000,-210.000
1032.4000, -84.645
1032.5000, -82.542
1032.6000,-210.000
1032.7000, -82.892
1032.8000, -84.362
1032.9000,-210.000
1033.0000,-101.651
1033.1000, -90.548
1033.2000, -80.780
1033.3000, -85.909
1033.4000,-210.000
1033.5000, -81.889
1033.6000, -82.183
1033.7000,-210.000
1033.8000, -81.936
1033.9000,-210.000
1034.0000, -82.782
1034.1000, -91.031
1034.2000,-210.000
1034.3000, -81.580
1034.4000,-210.000
1034.5000, -85.417
1034.6000, -88.243
1034.7000, -85.561
1034.8000, -84.589
1034.9000, -82.454
1035.0000, -87.768
1035.1000, -90.816
1035.2000, -82.334
1035.3000,-210.000
1035.4000,-210.000
1035.5000, -81.292
1035.6000,-210.000
1035.7000, -84.782
1035.8000, -84.847
1035.9000, -84.542
1036.0000, -88.093
1036.1000, -83.419
1036.2000, -85.875
1036.3000, -82.981
1036.4000,-210.000
1036.5000, -83.757
1036.6000, -84.602
1036.7000, -87.317
1036.8000, -82.669
1036.9000, -80.910
1037.0000,-210.000
1037.1000, -87.783
1037.2000, -83.037
1037.3000, -88.237
1037.4000, -83.754
1037.5000, -89.301
1037.6000, -84.207
1037.7000, -85.722
1037.8000, -79.820
1037.9000, -85.072
1038.0000, -93.711
1038.1000, -80.990
1038.2000,-210.000
1038.3000, -78.435
1038.4000,-210.000
1038.5000,-210.000
1038.6000,-210.000
1038.7000, -83.381
1038.8000, -85.818
1038.9000, -82.807
1039.0000, -90.659
1039.1000, -81.973
1039.2000, -79.683
1039.3000,-210.000
1039.4000,-210.000
1039.5000, -83.650
1039.6000, -86.100
1039.7000, -81.312
1039.8000, -83.259
1039.9000, -84.411
1040.0000,-210.000
1040.1000, -83.654
1040.2000, -89.650
1040.3000,-210.000
1040.4000, -89.523
1040.5000, -81.544
1040.6000, -94.848
1040.7000, -84.421
1040.8000, -91.251
1040.9000, -88.324
1041.0000, -84.362
1041.1000, -87.623
1041.2000, -86.578
1041.3000, -84.574
1041.4000, -82.897
1041.5000, -82.821
1041.6000,-210.000
1041.7000, -84.801
1041.8000, -84.339
1041.9000, -83.410
1042.0000, -83.003
1042.1000,-210.000
1042.2000,-210.000
1042.3000, -87.697
1042.4000, -82.392
1042.5000, -85.886
1042.6000, -85.699
1042.7000, -84.650
1042.8000, -84.038
1042.9000, -91.166
1043.0000, -82.783
1043.1000, -83.452
1043.2000, -83.617
1043.3000, -84.198
1043.4000, -85.345
1043.5000, -83.324
1043.6000, -89.502
1043.7000, -84.584
1043.8000, -92.384
1043.9000, -83.932
1044.0000, -95.659
1044.1000, -84.711
1044.2000, -79.864
1044.3000, -82.514
1044.4000, -85.001
1044.5000, -82.531
1044.6000, -84.833
1044.7000, -90.554
1044.8000, -89.807
1044.9000, -82.966
1045.0000, -85.429
1045.1000, -79.247
1045.2000, -85.611
1045.3000, -81.192
1045.4000,-210.000
1045.5000,-100.465
1045.6000,-210.000
1045.7000, -81.109
1045.8000,-210.000
1045.9000, -84.348
1046.0000, -86.595
1046.1000, -83.344
1046.2000, -84.278
1046.3000, -85.968
1046.4000, -83.768
1046.5000, -87.178
1046.6000,-210.000
1046.7000, -81.469
1046.8000, -85.538
1046.9000,-102.428
1047.0000, -83.157
1047.1000, -80.412
1047.2000,-210.000
1047.3000, -83.676
1047.4000, -80.353
1047.5000, -81.977
1047.6000,-210.000
1047.7000, -83.995
1047.8000, -86.515
1047.9000, -86.676
1048.0000, -81.668
1048.1000, -88.192
1048.2000, -81.899
1048.3000,-210.000
1048.4000, -84.794
1048.5000, -84.822
1048.6000,-210.000
1048.7000, -82.681
1048.8000, -82.095
1048.9000, -85.388
1049.0000, -80.807
1049.1000, -78.733
1049.2000, -84.767
1049.3000, -81.740
1049.4000, -83.185
1049.5000, -82.365
1049.6000, -80.623
1049.7000, -84.523
1049.8000, -82.313
1049.9000, -80.743
1050.0000,-210.000
1050.1000, -82.610
1050.2000, -84.380
1050.3000, -82.768
1050.4000, -82.640
1050.5000, -82.838
1050.6000, -90.530
1050.7000, -80.321
1050.8000, -89.972
1050.9000, -80.827
1051.0000, -88.030
1051.1000, -82.450
1051.2000, -80.031
1051.3000,-210.000
1051.4000, -82.126
1051.5000, -81.105
1051.6000, -83.833
1051.7000, -82.763
1051.8000, -78.650
1051.9000, -79.117
1052.0000, -78.247
1052.1000, -77.996
1052.2000, -76.996
1052.3000, -76.286
1052.4000, -76.745
1052.5000, -77.225
1052.6000, -75.809
1052.7000, -75.187
1052.8000, -76.091
1052.9000, -77.955
1053.0000, -82.447
1053.1000, -78.105
1053.2000, -80.363
1053.3000, -79.813
1053.4000, -79.994
1053.5000, -82.474
1053.6000, -83.754
1053.7000, -82.683
1053.8000, -82.286
1053.9000, -80.038
1054.0000, -83.034
1054.1000, -84.018
1054.2000,-210.000
1054.3000, -76.685
1054.4000, -79.235
1054.5000, -88.570
1054.6000, -79.184
1054.7000, -84.928
1054.8000, -78.129
1054.9000,-210.000
1055.0000,-210.000
1055.1000, -78.552
1055.2000, -80.713
1055.3000,-210.000
1055.4000, -77.216
1055.5000, -83.048
1055.6000, -87.004
1055.7000, -79.730
1055.8000, -80.956
1055.9000, -85.488
1056.0000, -79.618
1056.1000,-101.873
1056.2000, -80.605
1056.3000, -80.181
1056.4000, -79.398
1056.5000,-210.000
1056.6000, -80.102
1056.7000, -84.953
1056.8000, -81.501
1056.9000, -82.938
1057.0000, -80.655
1057.1000, -80.746
1057.2000, -83.971
1057.3000, -79.016
1057.4000, -86.849
1057.5000, -81.396
1057.6000, -80.524
1057.7000, -83.998
1057.8000, -78.866
1057.9000,-210.000
1058.0000, -78.343
1058.1000, -83.316
1058.2000, -84.918
1058.3000, -80.151
1058.4000, -84.367
1058.5000, -79.553
1058.6000, -80.270
1058.7000, -82.129
1058.8000, -85.336
1058.9000, -80.180
1059.0000, -80.473
1059.1000, -76.686
1059.2000, -86.142
1059.3000, -86.619
1059.4000, -78.350
1059.5000, -79.302
1059.6000, -85.913
1059.7000, -79.680
1059.8000, -79.579
1059.9000, -78.167
1060.0000, -79.727
1060.1000, -78.154
1060.2000, -78.188
1060.3000, -79.160
1060.4000, -78.210
1060.5000, -78.572
1060.6000, -77.661
1060.7000, -77.953
1060.8000, -77.928
1060.9000, -76.497
1061.0000, -77.475
1061.1000, -77.199
1061.2000, -75.430
1061.3000, -74.627
1061.4000, -75.359
1061.5000, -75.061
1061.6000, -72.657
1061.7000, -72.064
1061.8000, -71.882
1061.9000, -71.601
1062.0000, -71.518
1062.1000, -71.031
1062.2000, -70.921
1062.3000, -71.676
1062.4000, -72.528
1062.5000, -71.971
1062.6000, -71.952
1062.7000, -71.908
1062.8000, -71.964
1062.9000, -71.449
1063.0000, -70.737
1063.1000, -70.233
1063.2000, -69.800
1063.3000, -69.365
1063.4000, -68.919
1063.5000, -67.948
1063.6000, -67.067
1063.7000, -66.020
1063.8000, -64.986
1063.9000, -63.760
1064.0000, -62.238
1064.1000, -60.336
1064.2000, -52.696
1064.3000, -33.132
1064.4000, -16.019
1064.5000, -14.042
1064.6000, -14.027
1064.7000, -14.026
1064.8000, -14.021
1064.9000, -14.029
1065.0000, -14.053
1065.1000, -16.670
1065.2000, -32.699
1065.3000, -47.920
1065.4000, -59.604
1065.5000, -61.920
1065.6000, -63.572
1065.7000, -64.792
1065.8000, -65.997
1065.9000, -67.216
1066.0000, -67.924
1066.1000, -68.573
1066.2000, -69.254
1066.3000, -69.645
1066.4000, -70.289
1066.5000, -70.776
1066.6000, -71.065
1066.7000, -71.738
1066.8000, -72.140
1066.9000, -72.447
1067.0000, -73.121
1067.1000, -73.540
1067.2000, -73.980
1067.3000, -74.521
1067.4000, -74.784
1067.5000, -74.659
1067.6000, -75.705
1067.7000, -74.872
1067.8000, -75.719
1067.9000, -74.587
1068.0000, -75.042
1068.1000, -75.758
1068.2000, -76.316
1068.3000, -76.220
1068.4000, -74.393
1068.5000, -76.613
1068.6000, -75.264
1068.7000, -76.309
1068.8000, -76.208
1068.9000, -75.769
1069.0000, -76.631
1069.1000, -76.487
1069.2000, -77.515
1069.3000, -76.400
1069.4000, -75.920
1069.5000, -77.431
1069.6000, -77.169
1069.7000, -78.453
1069.8000, -76.894
1069.9000, -77.067
1070.0000, -78.981
1070.1000, -77.604
1070.2000, -78.850
1070.3000, -78.073
1070.4000, -78.064
1070.5000, -79.060
1070.6000, -78.469
1070.7000, -78.240
1070.8000, -78.359
1070.9000, -79.379
1071.0000, -78.985
1071.1000, -79.221
1071.2000, -80.164
1071.3000, -78.787
1071.4000, -80.185
1071.5000, -78.464
1071.6000, -79.208
1071.7000, -79.646
1071.8000, -78.737
1071.9000, -78.869
1072.0000, -79.837
1072.1000, -80.127
1072.2000, -80.366
1072.3000, -78.373
1072.4000, -84.985
1072.5000, -77.700
1072.6000, -78.921
1072.7000, -78.969
1072.8000, -79.262
1072.9000, -79.320
1073.0000, -81.266
1073.1000, -79.029
1073.2000, -80.300
1073.3000, -78.601
1073.4000, -79.150
1073.5000, -78.759
1073.6000, -77.527
1073.7000, -76.925
1073.8000, -77.507
1073.9000, -77.556
1074.0000, -75.106
1074.1000, -73.632
1074.2000, -74.207
1074.3000, -74.172
1074.4000, -74.097
1074.5000, -73.897
1074.6000, -73.736
1074.7000, -75.228
1074.8000, -76.794
1074.9000, -76.977
1075.0000, -76.095
1075.1000, -77.801
1075.2000, -79.466
1075.3000, -77.624
1075.4000, -79.012
1075.5000, -78.972
1075.6000, -77.566
1075.7000, -76.754
1075.8000, -80.736
1075.9000, -80.830
1076.0000, -78.431
1076.1000, -93.160
1076.2000, -79.995
1076.3000, -79.185
1076.4000, -81.925
1076.5000, -80.268
1076.6000, -79.023
1076.7000, -82.372
1076.8000, -79.927
1076.9000, -79.522
1077.0000, -78.868
1077.1000, -79.686
1077.2000, -79.320
1077.3000, -80.734
1077.4000, -78.469
1077.5000, -79.989
1077.6000, -79.635
1077.7000, -78.186
1077.8000, -78.813
1077.9000, -78.116
1078.0000, -79.292
1078.1000, -77.021
1078.2000, -77.806
1078.3000, -76.874
1078.4000, -78.259
1078.5000, -77.702
1078.6000, -76.903
1078.7000, -78.296
1078.8000, -78.004
1078.9000, -78.474
1079.0000, -77.547
1079.1000, -77.584
1079.2000, -78.597
1079.3000, -79.019
1079.4000, -79.542
1079.5000, -79.079
1079.6000, -80.636
1079.7000, -79.553
1079.8000, -79.498
1079.9000, -79.736
1080.0000, -81.229
1080.1000, -80.056
1080.2000, -82.218
1080.3000, -81.453
1080.4000, -79.538
1080.5000, -81.690
1080.6000, -81.176
1080.7000, -81.258
1080.8000, -82.162
1080.9000, -80.595
1081.0000, -80.766
1081.1000, -80.631
1081.2000, -77.802
1081.3000, -82.007
1081.4000, -90.665
1081.5000, -82.768
1081.6000, -80.331
1081.7000, -85.646
1081.8000, -79.038
1081.9000, -81.241
1082.0000, -80.991
1082.1000, -81.652
1082.2000, -79.691
1082.3000, -80.872
1082.4000, -78.719
1082.5000, -80.700
1082.6000, -82.261
1082.7000, -84.045
1082.8000, -79.037
1082.9000, -86.396
1083.0000, -85.935
1083.1000, -78.127
1083.2000, -81.231
1083.3000, -85.339
1083.4000, -79.156
1083.5000, -79.211
1083.6000,-210.000
1083.7000, -84.061
1083.8000, -78.783
1083.9000, -79.725
1084.0000, -84.415
1084.1000, -79.324
1084.2000, -78.799
1084.3000, -80.088
1084.4000, -85.692
1084.5000, -82.785
1084.6000, -81.642
1084.7000, -79.227
1084.8000, -81.200
1084.9000, -85.995
1085.0000, -81.999
1085.1000, -82.556
1085.2000, -81.701
1085.3000, -79.555
1085.4000, -80.436
1085.5000, -82.468
1085.6000,-106.509
1085.7000, -79.404
1085.8000, -89.258
1085.9000, -80.336
1086.0000, -85.091
1086.1000, -79.066
1086.2000, -79.568
1086.3000, -85.022
1086.4000, -87.803
1086.5000, -79.005
1086.6000, -81.565
1086.7000, -95.838
1086.8000, -78.452
1086.9000, -79.987
1087.0000, -89.535
1087.1000, -81.989
1087.2000, -83.000
1087.3000, -82.889
1087.4000, -82.307
1087.5000, -82.409
1087.6000, -80.736
1087.7000, -81.507
1087.8000, -81.497
1087.9000, -79.535
1088.0000, -83.906
1088.1000, -82.476
1088.2000, -79.904
1088.3000, -79.301
1088.4000, -83.771
1088.5000, -82.641
1088.6000, -89.313
1088.7000, -82.790
1088.8000, -79.122
1088.9000, -77.799
1089.0000, -84.371
1089.1000, -80.352
1089.2000, -80.690
1089.3000, -82.042
1089.4000, -79.980
1089.5000, -78.121
1089.6000, -85.865
1089.7000, -83.613
1089.8000, -81.248
1089.9000, -79.558
1090.0000, -82.235
1090.1000, -82.514
1090.2000, -83.437
1090.3000, -83.600
1090.4000, -78.728
1090.5000, -82.603
1090.6000, -80.628
1090.7000, -84.650
1090.8000, -80.906
1090.9000, -79.304
1091.0000, -84.521
1091.1000, -79.364
1091.2000, -82.609
1091.3000, -82.505
1091.4000, -83.391
1091.5000, -78.219
1091.6000, -79.591
1091.7000, -81.064
1091.8000, -81.496
1091.9000,-210.000
1092.0000, -78.823
1092.1000, -79.624
1092.2000, -81.570
1092.3000, -80.851
1092.4000, -81.478
1092.5000, -80.256
1092.6000, -79.381
1092.7000, -82.128
1092.8000, -83.450
1092.9000, -81.132
1093.0000, -79.865
1093.1000, -80.559
1093.2000, -78.981
1093.3000, -79.573
1093.4000, -83.488
1093.5000, -81.561
1093.6000, -80.781
1093.7000, -79.769
1093.8000, -80.524
1093.9000, -79.943
1094.0000, -79.944
1094.1000, -80.463
1094.2000, -77.940
1094.3000, -82.843
1094.4000, -80.402
1094.5000, -78.401
1094.6000, -83.636
1094.7000, -80.261
1094.8000, -81.072
1094.9000, -80.448
1095.0000, -79.127
1095.1000, -79.589
1095.2000, -80.977
1095.3000, -81.114
1095.4000, -80.806
1095.5000, -78.735
1095.6000, -78.767
1095.7000, -81.303
1095.8000, -80.019
1095.9000, -80.989
1096.0000, -80.715
1096.1000, -79.671
1096.2000, -78.764
1096.3000, -81.785
1096.4000, -79.090
1096.5000, -77.323
1096.6000, -86.780
1096.7000, -81.022
1096.8000, -78.734
1096.9000, -78.563
1097.0000, -80.925
1097.1000, -81.279
1097.2000, -79.550
1097.3000, -79.779
1097.4000, -79.421
1097.5000, -79.390
1097.6000, -81.501
1097.7000, -79.156
1097.8000, -79.805
1097.9000, -81.378
1098.0000, -77.767
1098.1000, -80.702
1098.2000, -78.868
1098.3000, -82.079
1098.4000, -79.609
1098.5000, -77.980
1098.6000, -79.836
1098.7000, -79.438
1098.8000, -79.472
1098.9000, -81.110
1099.0000, -77.765
1099.1000, -78.402
1099.2000, -79.056
1099.3000, -78.551
1099.4000, -79.615
1099.5000, -78.158
1099.6000, -79.914
1099.7000, -77.681
1099.8000, -77.848
1099.9000, -78.783
1100.0000, -78.854
1100.1000, -78.303
1100.2000, -78.306
1100.3000, -78.152
1100.4000, -80.397
1100.5000, -78.662
1100.6000, -78.724
1100.7000, -77.629
1100.8000, -78.457
1100.9000, -78.729
1101.0000, -77.274
1101.1000, -78.881
1101.2000, -77.666
1101.3000, -78.266
1101.4000, -78.328
1101.5000, -77.833
1101.6000, -78.670
1101.7000, -77.763
1101.8000, -79.028
1101.9000, -77.420
1102.0000, -77.653
1102.1000, -77.458
1102.2000, -77.854
1102.3000, -77.954
1102.4000, -77.333
1102.5000, -77.946
1102.6000, -77.504
1102.7000, -76.648
1102.8000, -79.904
1102.9000, -78.096
1103.0000, -77.380
1103.1000, -77.085
1103.2000, -77.150
1103.3000, -77.277
1103.4000, -78.248
1103.5000, -77.640
1103.6000, -76.618
1103.7000, -77.966
1103.8000, -77.172
1103.9000, -77.405
1104.0000, -76.878
1104.1000, -76.359
1104.2000, -77.412
1104.3000, -76.605
1104.4000, -77.591
1104.5000, -76.464
1104.6000, -76.127
1104.7000, -76.916
1104.8000, -77.006
1104.9000, -76.291
1105.0000, -76.193
1105.1000, -76.617
1105.2000, -76.043
1105.3000, -76.127
1105.4000, -76.441
1105.5000, -75.383
1105.6000, -76.112
1105.7000, -74.832
1105.8000, -76.289
1105.9000, -75.458
1106.0000, -76.444
1106.1000, -75.769
1106.2000, -75.723
1106.3000, -75.399
1106.4000, -75.457
1106.5000, -76.117
1106.6000, -75.608
1106.7000, -75.970
1106.8000, -75.232
1106.9000, -76.601
1107.0000, -75.073
1107.1000, -76.554
1107.2000, -75.553
1107.3000, -75.574
1107.4000, -75.370
1107.5000, -75.415
1107.6000, -76.022
1107.7000, -75.372
1107.8000, -75.513
1107.9000, -75.581
1108.0000, -75.549
1108.1000, -75.254
1108.2000, -75.208
1108.3000, -74.768
1108.4000, -74.958
1108.5000, -75.218
1108.6000, -75.343
1108.7000, -75.133
1108.8000, -74.748
1108.9000, -75.174
1109.0000, -75.408
1109.1000, -74.997
1109.2000, -74.147
1109.3000, -74.811
1109.4000, -74.783
1109.5000, -75.009
1109.6000, -74.374
1109.7000, -75.394
1109.8000, -74.489
1109.9000, -74.637
1110.0000, -75.108
1110.1000, -74.144
1110.2000, -74.839
1110.3000, -73.915
1110.4000, -74.075
1110.5000, -74.494
1110.6000, -74.793
1110.7000, -74.493
1110.8000, -74.093
1110.9000, -73.999
1111.0000, -74.551
1111.1000, -74.968
1111.2000, -73.990
1111.3000, -73.429
1111.4000, -73.721
1111.5000, -73.945
1111.6000, -73.541
1111.7000, -74.102
1111.8000, -72.916
1111.9000, -73.393
1112.0000, -73.545
1112.1000, -74.196
1112.2000, -73.071
1112.3000, -72.610
1112.4000, -73.415
1112.5000, -73.226
1112.6000, -73.403
1112.7000, -72.992
1112.8000, -73.398
1112.9000, -73.061
1113.0000, -73.473
1113.1000, -73.375
1113.2000, -73.593
1113.3000, -73.279
1113.4000, -73.612
1113.5000, -73.615
1113.6000, -73.076
1113.7000, -73.095
1113.8000, -73.544
1113.9000, -72.987
1114.0000, -73.516
1114.1000, -73.494
1114.2000, -73.243
1114.3000, -73.090
1114.4000, -73.124
1114.5000, -73.342
1114.6000, -73.121
1114.7000, -72.991
1114.8000, -73.328
1114.9000, -73.153
1115.0000, -72.880
1115.1000, -73.301
1115.2000, -72.964
1115.3000, -72.922
1115.4000, -73.088
1115.5000, -73.105
1115.6000, -72.968
1115.7000, -72.599
1115.8000, -72.376
1115.9000, -72.140
1116.0000, -73.219
1116.1000, -72.331
1116.2000, -72.383
1116.3000, -72.028
1116.4000, -73.233
1116.5000, -72.659
1116.6000, -72.260
1116.7000, -72.480
1116.8000, -72.656
1116.9000, -72.715
1117.0000, -72.466
1117.1000, -72.634
1117.2000, -73.119
1117.3000, -72.681
1117.4000, -72.777
1117.5000, -72.569
1117.6000, -73.364
1117.7000, -73.244
1117.8000, -72.856
1117.9000, -72.772
1118.0000, -73.134
1118.1000, -73.358
1118.2000, -73.415
1118.3000, -72.873
1118.4000, -73.520
1118.5000, -73.457
1118.6000, -73.580
1118.7000, -73.552
1118.8000, -73.421
1118.9000, -73.429
1119.0000, -73.659
1119.1000, -73.341
1119.2000, -73.671
1119.3000, -73.581
1119.4000, -73.781
1119.5000, -73.524
1119.6000, -73.842
1119.7000, -73.868
1119.8000, -74.031
1119.9000, -74.246
1120.0000, -74.222
1120.1000, -74.092
1120.2000, -74.244
1120.3000, -75.997
1120.4000, -73.759
1120.5000, -73.633
1120.6000, -74.763
1120.7000, -75.060
1120.8000, -74.508
1120.9000, -74.285
1121.0000, -74.623
1121.1000, -74.657
1121.2000, -74.699
1121.3000, -74.289
1121.4000, -74.560
1121.5000, -74.664
1121.6000, -74.692
1121.7000, -74.499
1121.8000, -74.066
1121.9000, -73.929
1122.0000, -74.398
1122.1000, -74.501
1122.2000, -74.200
1122.3000, -74.539
1122.4000, -73.594
1122.5000, -73.921
1122.6000, -74.040
1122.7000, -73.868
1122.8000, -74.046
1122.9000, -73.149
1123.0000, -73.895
1123.1000, -74.117
1123.2000, -74.027
1123.3000, -73.792
1123.4000, -73.886
1123.5000, -73.913
1123.6000, -74.603
1123.7000, -75.418
1123.8000, -74.549
1123.9000, -75.180
1124.0000, -73.773
1124.1000, -75.776
1124.2000, -75.679
1124.3000, -74.780
1124.4000, -76.219
1124.5000, -77.303
1124.6000, -76.757
1124.7000, -77.404
1124.8000, -75.165
1124.9000, -78.315
1125.0000, -79.635
1125.1000, -75.801
1125.2000, -77.580
1125.3000, -77.326
1125.4000, -76.739
1125.5000, -78.694
1125.6000, -79.447
1125.7000, -77.959
1125.8000, -79.849
1125.9000, -79.673
1126.0000, -80.592
1126.1000, -82.071
1126.2000, -82.496
1126.3000, -81.142
1126.4000, -79.988
1126.5000, -80.241
1126.6000, -90.761
1126.7000, -83.439
1126.8000, -78.767
1126.9000, -85.299
1127.0000, -79.636
1127.1000, -76.234
1127.2000, -92.767
1127.3000,-210.000
1127.4000, -79.542
1127.5000, -80.430
1127.6000, -79.888
1127.7000, -84.637
1127.8000, -77.224
1127.9000,-210.000
1128.0000, -89.090
1128.1000, -76.728
1128.2000, -86.574
1128.3000, -84.147
1128.4000, -85.837
1128.5000, -79.763
1128.6000, -84.060
1128.7000,-210.000
1128.8000, -83.038
1128.9000, -82.599
1129.0000, -81.329
1129.1000, -79.574
1129.2000,-210.000
1129.3000, -81.912
1129.4000, -85.887
1129.5000,-210.000
1129.6000, -79.115
1129.7000, -85.972
1129.8000,-210.000
1129.9000, -87.855
1130.0000, -84.596
1130.1000, -84.057
1130.2000, -84.018
1130.3000, -84.404
1130.4000,-210.000
1130.5000, -87.134
1130.6000, -82.540
1130.7000, -81.970
1130.8000, -82.331
1130.9000, -81.581
1131.0000, -84.648
1131.1000, -82.203
1131.2000, -83.161
1131.3000, -84.134
1131.4000, -87.231
1131.5000, -84.596
1131.6000, -88.200
1131.7000, -85.545
1131.8000,-210.000
1131.9000, -81.487
1132.0000, -89.488
1132.1000, -80.195
1132.2000,-210.000
1132.3000, -85.018
1132.4000, -83.390
1132.5000,-210.000
1132.6000, -82.013
1132.7000, -88.238
1132.8000, -82.500
1132.9000, -85.125
1133.0000, -81.634
1133.1000, -88.773
1133.2000,-210.000
1133.3000, -87.411
1133.4000, -83.345
1133.5000, -84.257
1133.6000,-101.149
1133.7000, -88.294
1133.8000, -84.657
1133.9000, -91.505
1134.0000, -84.433
1134.1000, -82.711
1134.2000, -84.915
1134.3000, -86.117
1134.4000, -84.198
1134.5000, -84.065
1134.6000, -80.931
1134.7000, -81.199
1134.8000,-210.000
1134.9000, -95.106
1135.0000, -78.475
1135.1000, -81.503
1135.2000,-210.000
1135.3000, -82.690
1135.4000, -86.845
1135.5000, -89.058
1135.6000, -82.541
1135.7000, -81.821
1135.8000, -86.792
1135.9000,-210.000
1136.0000, -85.243
1136.1000, -83.179
1136.2000, -88.183
1136.3000, -83.808
1136.4000, -80.076
1136.5000, -82.204
1136.6000, -91.137
1136.7000, -83.093
1136.8000, -83.477
1136.9000,-210.000
1137.0000, -80.835
1137.1000, -88.752
1137.2000, -84.126
1137.3000, -82.012
1137.4000, -82.093
1137.5000, -85.844
1137.6000, -83.603
1137.7000, -80.439
1137.8000, -86.571
1137.9000, -83.907
1138.0000,-210.000
1138.1000, -84.870
1138.2000, -85.075
1138.3000, -83.403
1138.4000, -78.510
1138.5000,-210.000
1138.6000, -81.909
1138.7000, -83.808
1138.8000,-210.000
1138.9000, -83.929
1139.0000, -83.395
1139.1000,-210.000
1139.2000, -81.254
1139.3000, -84.292
1139.4000, -85.539
1139.5000,-210.000
1139.6000, -87.591
1139.7000, -87.268
1139.8000, -83.868
1139.9000, -84.716
1140.0000, -86.449
1140.1000, -91.796
1140.2000, -84.825
1140.3000,-210.000
1140.4000, -82.780
1140.5000, -85.223
1140.6000, -98.302
1140.7000, -85.832
1140.8000, -83.747
1140.9000, -84.651
1141.0000, -84.583
1141.1000, -91.941
1141.2000, -86.029
1141.3000,-210.000
1141.4000, -93.207
1141.5000, -82.212
1141.6000, -84.916
1141.7000,-210.000
1141.8000, -90.280
1141.9000, -84.496
1142.0000,-210.000
1142.1000,-210.000
1142.2000, -80.933
1142.3000, -83.734
1142.4000, -80.229
1142.5000,-210.000
1142.6000,-210.000
1142.7000,-210.000
1142.8000,-210.000
1142.9000, -84.870
1143.0000, -86.263
1143.1000, -85.035
1143.2000, -82.920
1143.3000, -84.616
1143.4000,-210.000
1143.5000, -88.361
1143.6000, -79.421
1143.7000,-210.000
1143.8000,-210.000
1143.9000, -83.045
1144.0000,-210.000
1144.1000, -85.073
1144.2000, -91.343
1144.3000,-210.000
1144.4000, -83.121
1144.5000, -85.481
1144.6000, -88.749
1144.7000,-210.000
1144.8000, -80.025
1144.9000, -81.946
1145.0000,-210.000
1145.1000,-210.000
1145.2000, -80.459
1145.3000,-210.000
1145.4000, -84.020
1145.5000, -86.427
1145.6000,-210.000
1145.7000, -82.085
1145.8000,-210.000
1145.9000, -85.696
1146.0000, -84.561
1146.1000, -82.789
1146.2000, -83.887
1146.3000,-210.000
1146.4000,-210.000
1146.5000, -89.752
1146.6000, -93.234
1146.7000, -88.151
1146.8000,-109.931
1146.9000,-210.000
1147.0000, -83.784
1147.1000, -85.822
1147.2000, -87.957
1147.3000,-210.000
1147.4000, -84.533
1147.5000, -84.782
1147.6000, -86.285
1147.7000, -93.031
1147.8000,-210.000
1147.9000, -83.849
1148.0000, -89.929
1148.1000, -83.651
1148.2000, -83.767
1148.3000,-210.000
1148.4000,-210.000
1148.5000, -83.482
1148.6000, -88.289
1148.7000, -89.994
1148.8000, -83.614
1148.9000,-210.000
1149.0000, -85.614
1149.1000, -84.871
1149.2000,-210.000
1149.3000, -85.526
1149.4000, -88.441
1149.5000, -88.437
1149.6000, -84.757
1149.7000, -88.575
1149.8000,-210.000
1149.9000, -83.046
1150.0000, -86.500
1150.1000, -86.683
1150.2000,-210.000
1150.3000, -88.726
1150.4000, -82.815
1150.5000,-210.000
1150.6000,-210.000
1150.7000, -86.638
1150.8000, -90.070
1150.9000, -88.195
1151.0000, -83.251
1151.1000, -86.124
1151.2000,-210.000
1151.3000, -87.964
1151.4000, -84.452
1151.5000,-210.000
1151.6000, -84.554
1151.7000, -91.434
1151.8000,-100.825
1151.9000, -85.750
1152.0000, -91.028
1152.1000, -86.788
1152.2000, -95.697
1152.3000,-210.000
1152.4000, -85.337
1152.5000, -83.089
1152.6000, -83.637
1152.7000, -87.307
1152.8000, -85.320
1152.9000,-210.000
1153.0000, -85.254
1153.1000, -86.940
1153.2000,-210.000
1153.3000, -98.176
1153.4000, -83.681
1153.5000, -84.398
1153.6000, -84.272
1153.7000,-210.000
1153.8000,-210.000
1153.9000, -86.501
1154.0000, -79.659
1154.1000,-210.000
1154.2000, -81.570
1154.3000, -83.948
1154.4000,-210.000
1154.5000, -87.455
1154.6000, -86.854
1154.7000, -87.240
1154.8000, -88.530
1154.9000, -90.550
1155.0000, -82.746
1155.1000,-210.000
1155.2000, -85.589
1155.3000, -88.258
1155.4000, -85.916
1155.5000, -88.617
1155.6000, -84.527
1155.7000, -84.842
1155.8000, -84.665
1155.9000, -98.915
1156.0000, -98.431
1156.1000,-210.000
1156.2000, -84.181
1156.3000, -86.799
1156.4000, -91.968
1156.5000,-210.000
1156.6000, -91.436
1156.7000, -87.478
1156.8000, -83.548
1156.9000, -83.993
1157.0000,-210.000
1157.1000,-210.000
1157.2000, -82.988
1157.3000, -80.330
1157.4000,-210.000
1157.5000,-210.000
1157.6000, -89.772
1157.7000, -91.196
1157.8000, -85.232
1157.9000, -84.284
1158.0000,-210.000
1158.1000,-210.000
1158.2000, -83.285
1158.3000, -82.817
1158.4000,-210.000
1158.5000,-210.000
1158.6000,-210.000
1158.7000, -88.957
1158.8000, -85.902
1158.9000, -86.325
1159.0000, -87.598
1159.1000,-106.808
1159.2000, -87.580
1159.3000,-210.000
1159.4000, -91.679
1159.5000, -92.263
1159.6000, -84.549
1159.7000,-210.000
1159.8000, -84.827
1159.9000, -84.693
1160.0000,-210.000
1160.1000, -85.181
1160.2000,-210.000
1160.3000,-210.000
1160.4000, -85.661
1160.5000, -93.339
1160.6000, -84.119
1160.7000,-210.000
1160.8000, -88.167
1160.9000, -84.065
1161.0000, -84.714
1161.1000, -86.045
1161.2000, -82.848
1161.3000, -85.500
1161.4000,-210.000
1161.5000, -91.492
1161.6000, -85.471
1161.7000,-210.000
1161.8000, -89.674
1161.9000, -89.656
1162.0000, -82.724
1162.1000, -93.339
1162.2000, -88.007
1162.3000, -91.542
1162.4000, -87.230
1162.5000, -81.697
1162.6000, -84.615
1162.7000, -87.907
1162.8000, -83.860
1162.9000, -94.471
1163.0000, -85.888
1163.1000, -87.164
1163.2000, -86.975
1163.3000, -84.413
1163.4000, -84.728
1163.5000, -87.968
1163.6000,-210.000
1163.7000, -87.297
1163.8000, -84.980
1163.9000, -88.571
1164.0000, -83.673
1164.1000,-210.000
1164.2000, -83.191
1164.3000, -94.937
1164.4000, -82.704
1164.5000, -84.594
1164.6000, -84.419
1164.7000,-210.000
1164.8000, -85.150
1164.9000, -83.777
1165.0000,-210.000
1165.1000,-210.000
1165.2000, -79.695
1165.3000, -80.201
1165.4000,-210.000
1165.5000, -90.697
1165.6000, -80.243
1165.7000,-210.000
1165.8000,-210.000
1165.9000, -79.789
1166.0000, -81.037
1166.1000,-210.000
1166.2000,-210.000
1166.3000, -78.743
1166.4000, -85.042
1166.5000, -82.452
1166.6000,-210.000
1166.7000, -88.096
1166.8000, -87.870
1166.9000, -85.585
1167.0000, -84.541
1167.1000,-210.000
1167.2000, -87.467
1167.3000, -81.913
1167.4000, -86.890
1167.5000, -85.632
1167.6000, -83.094
1167.7000, -85.528
1167.8000, -85.607
1167.9000,-210.000
1168.0000,-210.000
1168.1000, -80.956
1168.2000, -86.895
1168.3000,-210.000
1168.4000, -88.933
1168.5000, -82.556
1168.6000,-210.000
1168.7000, -91.556
1168.8000, -86.175
1168.9000, -83.635
1169.0000, -88.621
1169.1000,-210.000
1169.2000, -88.090
1169.3000, -80.727
1169.4000, -97.509
1169.5000, -92.710
1169.6000, -84.403
1169.7000,-210.000
1169.8000,-210.000
1169.9000,-210.000
1170.0000, -81.698
1170.1000, -84.011
1170.2000, -91.192
1170.3000, -84.719
1170.4000, -90.227
1170.5000, -87.036
1170.6000, -87.905
1170.7000, -89.629
1170.8000, -91.964
1170.9000, -93.292
1171.0000, -88.327
1171.1000, -85.130
1171.2000, -84.208
1171.3000,-210.000
1171.4000, -90.756
1171.5000, -86.486
1171.6000, -83.049
1171.7000,-210.000
1171.8000, -85.835
1171.9000, -88.976
1172.0000, -86.834
1172.1000, -83.807
1172.2000, -98.956
1172.3000, -93.007
1172.4000, -83.425
1172.5000, -89.228
1172.6000, -90.804
1172.7000, -85.757
1172.8000, -84.378
1172.9000, -81.399
1173.0000,-210.000
1173.1000, -91.985
1173.2000,-210.000
1173.3000, -82.865
1173.4000,-210.000
1173.5000, -83.361
1173.6000,-210.000
1173.7000, -88.020
1173.8000, -81.329
1173.9000,-210.000
1174.0000, -85.529
1174.1000, -83.116
1174.2000,-210.000
1174.3000, -87.884
1174.4000, -83.864
1174.5000, -82.212
1174.6000,-210.000
1174.7000, -87.822
1174.8000,-210.000
1174.9000,-210.000
1175.0000,-210.000
1175.1000, -86.045
1175.2000, -86.401
1175.3000, -87.541
1175.4000,-210.000
1175.5000,-210.000
1175.6000, -80.439
1175.7000,-210.000
1175.8000,-210.000
1175.9000, -83.868
1176.0000, -96.718
1176.1000, -85.253
1176.2000, -81.241
1176.3000, -85.154
1176.4000, -87.890
1176.5000, -87.846
1176.6000, -86.514
1176.7000, -86.294
1176.8000, -86.249
1176.9000,-210.000
1177.0000, -81.767
1177.1000,-210.000
1177.2000,-210.000
1177.3000, -85.659
1177.4000,-210.000
1177.5000,-210.000
1177.6000, -86.388
1177.7000, -84.745
1177.8000, -85.810
1177.9000, -82.187
1178.0000,-210.000
1178.1000,-210.000
1178.2000, -85.269
1178.3000, -78.933
1178.4000,-210.000
1178.5000,-210.000
1178.6000, -85.011
1178.7000, -91.334
1178.8000,-210.000
1178.9000,-210.000
1179.0000, -81.719
1179.1000, -87.928
1179.2000, -92.391
1179.3000, -86.536
1179.4000,-210.000
1179.5000, -88.088
1179.6000, -89.184
1179.7000, -83.908
1179.8000,-210.000
1179.9000, -86.371
1180.0000, -83.585
1180.1000,-210.000
1180.2000, -80.959
1180.3000, -81.672
1180.4000,-210.000
1180.5000, -83.969
1180.6000,-210.000
1180.7000, -82.677
1180.8000,-210.000
1180.9000,-210.000
1181.0000, -80.530
1181.1000, -83.150
1181.2000, -89.411
1181.3000,-210.000
1181.4000,-210.000
1181.5000, -79.162
1181.6000,-210.000
1181.7000,-210.000
1181.8000, -77.410
1181.9000,-210.000
1182.0000, -78.924
1182.1000,-210.000
1182.2000,-210.000
1182.3000, -79.028
1182.4000,-210.000
1182.5000, -81.679
1182.6000,-210.000
1182.7000,-100.974
1182.8000, -82.450
1182.9000,-210.000
1183.0000, -86.105
1183.1000,-210.000
1183.2000, -81.145
1183.3000, -88.531
1183.4000, -85.851
1183.5000,-210.000
1183.6000, -84.071
1183.7000, -84.206
1183.8000, -86.334
1183.9000,-210.000
1184.0000, -91.407
1184.1000, -84.371
1184.2000, -83.167
1184.3000,-210.000
1184.4000,-210.000
1184.5000,-210.000
1184.6000, -77.180
1184.7000,-210.000
1184.8000, -81.616
1184.9000, -82.197
1185.0000,-210.000
1185.1000, -77.926
1185.2000,-210.000
1185.3000,-210.000
1185.4000, -98.735
1185.5000, -82.292
1185.6000,-210.000
1185.7000, -83.303
1185.8000, -84.238
1185.9000, -88.769
1186.0000, -84.503
1186.1000, -92.526
1186.2000,-210.000
1186.3000, -78.779
1186.4000, -82.416
1186.5000,-210.000
1186.6000, -80.586
1186.7000, -84.394
1186.8000, -83.337
1186.9000,-210.000
1187.0000, -87.676
1187.1000, -83.314
1187.2000, -99.716
1187.3000,-210.000
1187.4000,-210.000
1187.5000, -78.737
1187.6000, -90.189
1187.7000, -89.069
1187.8000, -89.548
1187.9000, -86.201
1188.0000, -88.240
1188.1000,-210.000
1188.2000, -80.403
1188.3000, -86.747
1188.4000,-210.000
1188.5000, -82.370
1188.6000,-210.000
1188.7000, -82.885
1188.8000, -82.934
1188.9000,-210.000
1189.0000, -83.454
1189.1000,-210.000
1189.2000, -85.839
1189.3000, -88.125
1189.4000, -93.383
1189.5000, -84.044
1189.6000, -89.536
1189.7000,-210.000
1189.8000, -83.964
1189.9000, -87.656
1190.0000,-210.000
1190.1000, -80.603
1190.2000, -96.467
1190.3000,-210.000
1190.4000,-210.000
1190.5000, -83.474
1190.6000, -93.449
1190.7000,-210.000
1190.8000, -81.779
1190.9000, -82.329
1191.0000, -84.734
1191.1000,-210.000
1191.2000, -84.278
1191.3000,-210.000
1191.4000, -83.112
1191.5000, -89.411
1191.6000, -84.750
1191.7000,-210.000
1191.8000, -80.058
1191.9000, -85.863
1192.0000,-210.000
1192.1000, -82.295
1192.2000, -90.188
1192.3000, -90.527
1192.4000,-210.000
1192.5000, -83.006
1192.6000, -79.288
1192.7000,-210.000
1192.8000, -91.747
1192.9000, -83.413
1193.0000, -84.624
1193.1000, -82.164
1193.2000,-210.000
1193.3000,-210.000
1193.4000, -81.526
1193.5000, -82.233
1193.6000,-210.000
1193.7000, -82.158
1193.8000, -88.992
1193.9000,-210.000
1194.0000,-210.000
1194.1000, -88.663
1194.2000,-210.000
1194.3000, -86.198
1194.4000, -84.817
1194.5000, -83.481
1194.6000,-210.000
1194.7000, -94.157
1194.8000,-210.000
1194.9000, -82.204
1195.0000, -80.113
1195.1000, -81.834
1195.2000,-210.000
1195.3000,-210.000
1195.4000,-210.000
1195.5000, -82.917
1195.6000, -85.717
1195.7000, -87.107
1195.8000,-210.000
1195.9000, -86.035
1196.0000, -85.720
1196.1000, -86.743
1196.2000,-210.000
1196.3000, -80.225
1196.4000,-210.000
1196.5000,-210.000
1196.6000,-210.000
1196.7000, -89.948
1196.8000, -85.546
1196.9000, -87.267
1197.0000, -88.737
1197.1000, -83.764
1197.2000,-210.000
1197.3000,-210.000
1197.4000, -85.604
1197.5000, -82.690
1197.6000,-210.000
1197.7000,-210.000
1197.8000, -81.240
1197.9000, -85.809
1198.0000,-210.000
1198.1000,-210.000
1198.2000, -93.813
1198.3000,-210.000
1198.4000, -87.664
1198.5000, -84.504
1198.6000, -82.986
1198.7000, -86.050
1198.8000, -91.592
1198.9000, -87.123
1199.0000,-210.000
1199.1000,-210.000
1199.2000, -82.625
1199.3000,-210.000
1199.4000,-210.000
1199.5000,-210.000
1199.6000, -84.841
1199.7000, -97.154
1199.8000, -83.645
1199.9000, -93.317
1200.0000, -85.116
1200.1000,-210.000
1200.2000, -86.551
1200.3000, -89.689
1200.4000,-210.000
1200.5000, -83.616
1200.6000, -87.646
1200.7000,-210.000
1200.8000, -92.251
1200.9000, -92.019
1201.0000, -88.928
1201.1000, -82.451
1201.2000,-210.000
1201.3000,-210.000
1201.4000, -93.022
1201.5000, -84.968
1201.6000, -87.361
1201.7000,-210.000
1201.8000,-210.000
1201.9000, -91.271
1202.0000, -87.354
1202.1000, -82.874
1202.2000,-210.000
1202.3000, -88.457
1202.4000, -92.325
1202.5000,-210.000
1202.6000,-210.000
1202.7000, -82.677
1202.8000, -86.730
1202.9000, -88.149
1203.0000,-210.000
1203.1000,-210.000
1203.2000, -87.386
1203.3000, -88.677
1203.4000, -85.089
1203.5000, -85.431
1203.6000, -92.554
1203.7000, -82.635
1203.8000,-210.000
1203.9000, -89.305
1204.0000,-210.000
1204.1000, -81.388
1204.2000, -84.919
1204.3000,-210.000
1204.4000,-210.000
1204.5000, -82.371
1204.6000, -86.054
1204.7000, -84.684
1204.8000, -87.153
1204.9000,-101.472
1205.0000, -85.324
1205.1000,-210.000
1205.2000, -84.824
1205.3000,-210.000
1205.4000, -88.329
1205.5000, -84.169
1205.6000,-210.000
1205.7000, -83.867
1205.8000,-210.000
1205.9000,-210.000
1206.0000, -79.795
1206.1000, -88.516
1206.2000, -87.398
1206.3000, -85.451
1206.4000,-210.000
1206.5000,-210.000
1206.6000, -87.963
1206.7000, -83.275
1206.8000, -85.799
1206.9000, -85.318
1207.0000,-210.000
1207.1000,-210.000
1207.2000, -82.718
1207.3000, -82.811
1207.4000,-210.000
1207.5000, -85.030
1207.6000,-210.000
1207.7000,-210.000
1207.8000, -80.727
1207.9000,-210.000
1208.0000,-210.000
1208.1000, -82.180
1208.2000, -87.543
1208.3000,-210.000
1208.4000,-210.000
1208.5000, -81.622
1208.6000,-210.000
1208.7000,-210.000
1208.8000, -85.846
1208.9000,-210.000
1209.0000, -82.157
1209.1000,-210.000
1209.2000, -88.425
1209.3000, -85.015
1209.4000,-210.000
1209.5000,-210.000
1209.6000, -91.750
1209.7000, -96.261
1209.8000, -92.115
1209.9000, -86.622
1210.0000, -87.785
1210.1000, -87.415
1210.2000,-210.000
1210.3000, -87.450
1210.4000, -89.709
1210.5000,-210.000
1210.6000, -82.013
1210.7000, -85.970
1210.8000,-210.000
1210.9000, -84.650
1211.0000,-210.000
1211.1000, -80.764
1211.2000,-210.000
1211.3000, -89.326
1211.4000, -96.074
1211.5000, -94.551
1211.6000,-210.000
1211.7000,-210.000
1211.8000, -85.180
1211.9000,-210.000
1212.0000, -87.916
1212.1000,-210.000
1212.2000, -93.715
1212.3000, -84.949
1212.4000,-210.000
1212.5000,-210.000
1212.6000, -95.040
1212.7000, -86.964
1212.8000, -85.772
1212.9000, -87.208
1213.0000,-210.000
1213.1000,-107.762
1213.2000,-210.000
1213.3000, -89.843
1213.4000, -84.701
1213.5000, -85.761
1213.6000, -95.363
1213.7000, -91.068
1213.8000,-210.000
1213.9000, -85.118
1214.0000, -84.284
1214.1000, -95.428
1214.2000,-210.000
1214.3000, -90.422
1214.4000, -85.975
1214.5000, -91.380
1214.6000, -90.969
1214.7000, -91.511
1214.8000,-210.000
1214.9000,-210.000
1215.0000, -84.973
1215.1000,-210.000
1215.2000, -86.902
1215.3000, -91.076
1215.4000,-210.000
1215.5000, -87.607
1215.6000, -84.453
1215.7000,-210.000
1215.8000, -87.694
1215.9000,-210.000
1216.0000, -88.314
1216.1000, -89.133
1216.2000,-210.000
1216.3000, -91.289
1216.4000,-100.339
1216.5000,-210.000
1216.6000, -89.955
1216.7000, -89.325
1216.8000,-210.000
1216.9000, -82.778
1217.0000, -85.865
1217.1000,-210.000
1217.2000,-210.000
1217.3000, -87.960
1217.4000, -88.533
1217.5000,-210.000
1217.6000,-210.000
1217.7000, -83.038
1217.8000, -93.034
1217.9000, -84.590
1218.0000, -80.837
1218.1000,-210.000
1218.2000,-210.000
1218.3000, -87.760
1218.4000, -84.638
1218.5000,-210.000
1218.6000, -84.464
1218.7000, -86.083
1218.8000,-210.000
1218.9000, -91.147
1219.0000,-210.000
1219.1000,-210.000
1219.2000, -84.627
1219.3000, -87.839
1219.4000,-210.000
1219.5000, -88.083
1219.6000, -85.345
1219.7000, -83.580
1219.8000,-210.000
1219.9000, -86.850
1220.0000, -88.619
1220.1000, -87.976
1220.2000, -87.926
1220.3000, -94.506
1220.4000, -89.369
1220.5000,-210.000
1220.6000, -83.894
1220.7000,-210.000
1220.8000, -86.351
1220.9000, -89.103
1221.0000, -86.967
1221.1000,-210.000
1221.2000,-210.000
1221.3000, -85.759
1221.4000, -95.172
1221.5000,-210.000
1221.6000,-210.000
1221.7000, -88.429
1221.8000, -88.615
1221.9000, -88.386
1222.0000, -93.327
1222.1000,-210.000
1222.2000,-210.000
1222.3000, -85.511
1222.4000, -85.704
1222.5000,-210.000
1222.6000,-210.000
1222.7000,-210.000
1222.8000, -86.393
1222.9000, -83.907
1223.0000, -83.508
1223.1000,-210.000
1223.2000, -85.335
1223.3000, -84.335
1223.4000,-210.000
1223.5000, -83.683
1223.6000, -85.924
1223.7000, -96.640
1223.8000, -86.752
1223.9000,-210.000
1224.0000, -87.074
1224.1000, -89.710
1224.2000, -89.569
1224.3000, -89.637
1224.4000, -84.162
1224.5000, -88.408
1224.6000,-102.088
1224.7000, -86.838
1224.8000,-210.000
1224.9000, -84.732
1225.0000,-210.000
1225.1000, -87.462
1225.2000, -93.732
1225.3000,-210.000
1225.4000,-210.000
1225.5000, -87.530
1225.6000, -86.711
1225.7000, -83.551
1225.8000,-210.000
1225.9000, -88.603
1226.0000, -86.126
1226.1000, -88.081
1226.2000,-210.000
1226.3000, -86.742
1226.4000, -89.799
1226.5000,-210.000
1226.6000,-210.000
1226.7000, -87.649
1226.8000, -94.674
1226.9000, -89.454
1227.0000, -86.144
1227.1000, -85.910
1227.2000,-210.000
1227.3000, -87.638
1227.4000,-210.000
1227.5000,-210.000
1227.6000, -92.848
1227.7000, -88.029
1227.8000,-210.000
1227.9000, -86.910
1228.0000,-210.000
1228.1000, -88.357
1228.2000, -92.233
1228.3000, -90.179
1228.4000, -91.208
1228.5000, -83.032
1228.6000, -88.966
1228.7000,-210.000
1228.8000, -90.846
1228.9000, -84.690
1229.0000, -87.588
1229.1000, -86.333
1229.2000,-210.000
1229.3000,-210.000
1229.4000, -85.604
1229.5000, -91.207
1229.6000, -86.530
1229.7000, -95.531
1229.8000, -85.275
1229.9000,-210.000
1230.0000, -91.654
1230.1000, -90.989
1230.2000,-210.000
1230.3000, -90.420
1230.4000, -90.418
1230.5000, -85.385
1230.6000,-210.000
1230.7000,-210.000
1230.8000, -88.633
1230.9000, -85.023
1231.0000, -83.253
1231.1000,-210.000
1231.2000,-210.000
1231.3000, -84.671
1231.4000, -86.966
1231.5000, -87.329
1231.6000,-210.000
1231.7000, -84.557
1231.8000, -89.880
1231.9000,-210.000
1232.0000, -87.211
1232.1000, -86.239
1232.2000, -85.087
1232.3000, -92.106
1232.4000,-210.000
1232.5000,-210.000
1232.6000, -88.032
1232.7000,-210.000
1232.8000, -92.549
1232.9000,-210.000
1233.0000, -89.708
1233.1000, -83.465
1233.2000, -90.470
1233.3000, -89.690
1233.4000, -87.084
1233.5000, -89.762
1233.6000, -84.173
1233.7000, -87.329
1233.8000, -89.549
1233.9000,-210.000
1234.0000, -87.384
1234.1000,-210.000
1234.2000, -93.737
1234.3000,-210.000
1234.4000, -88.128
1234.5000, -90.966
1234.6000,-210.000
1234.7000, -86.855
1234.8000, -82.548
1234.9000, -83.900
1235.0000, -80.585
1235.1000,-210.000
1235.2000, -79.879
1235.3000,-210.000
1235.4000,-210.000
1235.5000, -82.609
1235.6000, -91.782
1235.7000, -87.450
1235.8000, -87.127
1235.9000, -88.921
1236.0000, -86.833
1236.1000, -89.533
1236.2000,-210.000
1236.3000,-210.000
1236.4000, -87.013
1236.5000, -90.151
1236.6000,-210.000
1236.7000,-210.000
1236.8000, -87.289
1236.9000, -90.141
1237.0000, -86.317
1237.1000, -88.676
1237.2000, -86.150
1237.3000,-210.000
1237.4000, -90.979
1237.5000, -85.864
1237.6000, -83.153
1237.7000,-210.000
1237.8000,-210.000
1237.9000, -85.795
1238.0000, -89.837
1238.1000, -90.210
1238.2000,-210.000
1238.3000,-210.000
1238.4000, -86.865
1238.5000, -85.823
1238.6000, -90.099
1238.7000,-210.000
1238.8000,-210.000
1238.9000, -87.869
1239.0000,-210.000
1239.1000, -87.154
1239.2000, -86.980
1239.3000, -89.617
1239.4000, -86.733
1239.5000, -88.530
1239.6000, -88.809
1239.7000, -87.260
1239.8000,-100.328
1239.9000, -85.757
1240.0000, -91.287
1240.1000, -93.764
1240.2000, -87.582
1240.3000, -92.032
1240.4000, -91.042
1240.5000, -96.441
1240.6000, -86.913
1240.7000, -97.686
1240.8000,-210.000
1240.9000,-210.000
1241.0000, -85.790
1241.1000, -86.737
1241.2000,-210.000
1241.3000,-210.000
1241.4000,-210.000
1241.5000, -89.870
1241.6000, -83.294
1241.7000, -86.465
1241.8000, -86.611
1241.9000,-210.000
1242.0000, -91.723
1242.1000, -93.154
1242.2000, -84.417
1242.3000,-210.000
1242.4000,-210.000
1242.5000, -92.897
1242.6000,-210.000
1242.7000, -82.658
1242.8000, -84.832
1242.9000, -88.699
1243.0000, -85.508
1243.1000, -91.774
1243.2000, -85.586
1243.3000,-210.000
1243.4000,-210.000
1243.5000, -90.143
1243.6000, -89.057
1243.7000, -87.840
1243.8000,-210.000
1243.9000, -89.843
1244.0000, -88.796
1244.1000, -98.792
1244.2000,-210.000
1244.3000, -86.628
1244.4000,-210.000
1244.5000, -88.079
1244.6000, -89.521
1244.7000, -84.861
1244.8000, -91.752
1244.9000,-210.000
1245.0000, -93.884
1245.1000, -84.012
1245.2000, -85.844
1245.3000,-210.000
1245.4000, -86.490
1245.5000,-210.000
1245.6000, -89.805
1245.7000, -88.113
1245.8000, -85.197
1245.9000,-210.000
1246.0000, -85.205
1246.1000, -91.051
1246.2000, -86.861
1246.3000,-210.000
1246.4000, -90.373
1246.5000, -88.346
1246.6000,-210.000
1246.7000, -84.471
1246.8000,-210.000
1246.9000,-210.000
1247.0000, -91.867
1247.1000, -91.418
1247.2000,-210.000
1247.3000, -92.183
1247.4000, -86.989
1247.5000,-210.000
1247.6000,-210.000
1247.7000, -88.526
1247.8000,-108.736
1247.9000, -85.264
1248.0000,-210.000
1248.1000, -89.335
1248.2000, -86.021
1248.3000, -85.487
1248.4000, -98.060
1248.5000, -85.738
1248.6000, -85.951
1248.7000, -94.706
1248.8000, -88.386
1248.9000, -88.337
1249.0000, -83.235
1249.1000, -90.331
1249.2000,-210.000
1249.3000,-210.000
1249.4000, -83.992
1249.5000, -83.396
1249.6000, -93.771
1249.7000, -85.367
1249.8000, -86.368
1249.9000,-102.323
1250.0000,-210.000
1250.1000, -91.781
1250.2000, -89.988
1250.3000,-210.000
1250.4000, -85.531
1250.5000, -83.489
1250.6000,-210.000
1250.7000, -83.187
1250.8000,-210.000
1250.9000,-210.000
1251.0000, -86.267
1251.1000, -84.500
1251.2000, -91.940
1251.3000, -86.391
1251.4000, -91.251
1251.5000, -90.020
1251.6000, -84.889
1251.7000, -88.787
1251.8000,-210.000
1251.9000,-108.924
1252.0000, -84.474
1252.1000,-210.000
1252.2000, -85.741
1252.3000, -91.007
1252.4000, -88.841
1252.5000, -99.272
1252.6000, -91.650
1252.7000, -90.690
1252.8000, -84.243
1252.9000,-210.000
1253.0000, -94.742
1253.1000, -89.595
1253.2000, -87.791
1253.3000,-210.000
1253.4000, -85.261
1253.5000,-210.000
1253.6000, -87.983
1253.7000, -90.758
1253.8000, -88.742
1253.9000, -89.119
1254.0000, -96.824
1254.1000,-210.000
1254.2000, -88.431
1254.3000, -95.283
1254.4000, -87.160
1254.5000, -87.051
1254.6000, -88.792
1254.7000,-210.000
1254.8000, -92.911
1254.9000, -84.526
1255.0000, -85.897
1255.1000,-210.000
1255.2000,-210.000
1255.3000, -90.374
1255.4000, -87.816
1255.5000, -89.114
1255.6000, -85.513
1255.7000,-210.000
1255.8000,-210.000
1255.9000, -82.410
1256.0000, -85.639
1256.1000,-210.000
1256.2000, -86.277
1256.3000, -87.251
1256.4000, -85.186
1256.5000, -84.640
1256.6000, -90.567
1256.7000, -88.972
1256.8000,-210.000
1256.9000, -92.009
1257.0000, -88.994
1257.1000, -89.740
1257.2000, -87.247
1257.3000, -87.510
1257.4000,-210.000
1257.5000, -88.882
1257.6000, -87.343
1257.7000, -83.773
1257.8000,-210.000
1257.9000, -79.801
1258.0000,-210.000
1258.1000,-210.000
1258.2000, -80.991
1258.3000,-210.000
1258.4000, -81.709
1258.5000,-210.000
1258.6000,-210.000
1258.7000, -85.396
1258.8000, -83.783
1258.9000,-210.000
1259.0000, -83.624
1259.1000, -82.931
1259.2000, -83.721
1259.3000,-210.000
1259.4000, -95.113
1259.5000, -87.373
1259.6000, -81.762
1259.7000,-210.000
1259.8000,-210.000
1259.9000,-210.000
1260.0000, -88.308
1260.1000, -84.100
1260.2000,-210.000
1260.3000, -83.734
1260.4000, -93.714
1260.5000, -85.065
1260.6000, -84.641
1260.7000,-210.000
1260.8000, -90.723
1260.9000, -87.762
1261.0000, -85.333
1261.1000,-210.000
1261.2000, -82.543
1261.3000, -92.260
1261.4000,-210.000
1261.5000, -86.008
1261.6000, -87.631
1261.7000,-210.000
1261.8000, -89.728
1261.9000,-210.000
1262.0000, -88.354
1262.1000, -94.037
1262.2000,-210.000
1262.3000,-210.000
1262.4000, -81.697
1262.5000, -91.108
1262.6000, -84.322
1262.7000, -91.514
1262.8000, -82.632
1262.9000,-210.000
1263.0000, -84.163
1263.1000,-210.000
1263.2000, -81.960
1263.3000, -85.666
1263.4000,-210.000
1263.5000,-210.000
1263.6000, -89.789
1263.7000,-210.000
1263.8000, -90.253
1263.9000, -89.102
1264.0000,-210.000
1264.1000,-117.872
1264.2000, -86.403
1264.3000, -90.400
1264.4000, -86.644
1264.5000, -87.848
1264.6000, -91.945
1264.7000,-210.000
1264.8000,-210.000
1264.9000, -83.805
1265.0000, -89.296
1265.1000,-210.000
1265.2000,-210.000
1265.3000, -83.375
1265.4000,-210.000
1265.5000, -80.480
1265.6000,-210.000
1265.7000, -81.695
1265.8000,-210.000
1265.9000, -89.803
1266.0000, -78.105
1266.1000, -80.720
1266.2000,-210.000
1266.3000, -89.900
1266.4000, -84.240
1266.5000,-210.000
1266.6000, -87.311
1266.7000,-210.000
1266.8000, -86.087
1266.9000, -85.193
1267.0000, -81.659
1267.1000,-210.000
1267.2000, -85.519
1267.3000,-210.000
1267.4000,-210.000
1267.5000, -82.883
1267.6000, -83.275
1267.7000, -92.021
1267.8000,-210.000
1267.9000,-210.000
1268.0000, -87.433
1268.1000, -89.938
1268.2000,-210.000
1268.3000,-210.000
1268.4000, -83.809
1268.5000, -87.142
1268.6000,-210.000
1268.7000, -97.045
1268.8000, -86.628
1268.9000, -80.915
1269.0000, -92.149
1269.1000, -86.820
1269.2000,-210.000
1269.3000, -89.403
1269.4000,-210.000
1269.5000,-210.000
1269.6000, -81.620
1269.7000,-210.000
1269.8000,-210.000
1269.9000, -83.070
1270.0000,-210.000
1270.1000, -87.685
1270.2000, -81.097
1270.3000,-210.000
1270.4000,-210.000
1270.5000, -86.406
1270.6000,-210.000
1270.7000, -82.645
1270.8000, -84.246
1270.9000,-210.000
1271.0000,-210.000
1271.1000, -87.505
1271.2000, -84.316
1271.3000,-210.000
1271.4000, -85.444
1271.5000, -92.708
1271.6000,-210.000
1271.7000, -87.114
1271.8000,-210.000
1271.9000, -93.364
1272.0000, -86.641
1272.1000,-210.000
1272.2000, -85.657
1272.3000, -92.064
1272.4000, -87.199
1272.5000, -84.187
1272.6000,-210.000
1272.7000,-210.000
1272.8000,-210.000
1272.9000,-210.000
1273.0000, -85.932
1273.1000, -91.294
1273.2000, -84.207
1273.3000,-210.000
1273.4000, -93.978
1273.5000,-210.000
1273.6000, -84.492
1273.7000, -94.105
1273.8000,-210.000
1273.9000, -92.731
1274.0000,-105.359
1274.1000,-210.000
1274.2000,-210.000
1274.3000,-210.000
1274.4000, -84.083
1274.5000,-210.000
1274.6000,-210.000
1274.7000, -87.044
1274.8000, -90.880
1274.9000, -89.267
1275.0000,-210.000
1275.1000, -86.805
1275.2000,-210.000
1275.3000,-210.000
1275.4000, -92.778
1275.5000, -86.261
1275.6000,-210.000
1275.7000, -92.889
1275.8000, -87.183
1275.9000, -85.587
1276.0000, -84.254
1276.1000,-210.000
1276.2000, -94.080
1276.3000,-210.000
1276.4000, -92.228
1276.5000, -94.135
1276.6000, -96.468
1276.7000,-210.000
1276.8000, -85.136
1276.9000, -85.115
1277.0000,-210.000
1277.1000,-210.000
1277.2000, -87.663
1277.3000,-210.000
1277.4000, -89.446
1277.5000, -89.943
1277.6000, -84.640
1277.7000, -86.330
1277.8000, -80.822
1277.9000, -94.393
1278.0000, -93.416
1278.1000,-210.000
1278.2000,-210.000
1278.3000, -87.048
1278.4000, -95.428
1278.5000, -86.719
1278.6000, -96.812
1278.7000, -81.674
1278.8000,-210.000
1278.9000,-210.000
1279.0000,-210.000
1279.1000, -94.910
1279.2000,-210.000
1279.3000, -87.825
1279.4000, -91.503
1279.5000,-210.000
1279.6000,-210.000
1279.7000, -83.582
1279.8000, -83.271
1279.9000,-210.000
1280.0000, -84.470
1280.1000,-210.000
1280.2000, -86.458
1280.3000,-210.000
1280.4000, -85.098
1280.5000, -87.970
1280.6000, -80.289
1280.7000,-210.000
1280.8000,-210.000
1280.9000, -84.401
1281.0000,-210.000
1281.1000, -87.733
1281.2000,-210.000
1281.3000, -83.086
1281.4000,-210.000
1281.5000,-210.000
1281.6000,-210.000
1281.7000, -87.750
1281.8000,-210.000
1281.9000,-210.000
1282.0000, -90.348
1282.1000, -84.866
1282.2000, -87.255
1282.3000,-210.000
1282.4000, -84.956
1282.5000, -91.056
1282.6000,-210.000
1282.7000,-210.000
1282.8000,-210.000
1282.9000, -85.462
1283.0000, -80.815
1283.1000,-210.000
1283.2000,-210.000
1283.3000, -77.710
1283.4000,-210.000
1283.5000,-210.000
1283.6000,-100.688
1283.7000, -83.106
1283.8000,-210.000
1283.9000,-210.000
1284.0000, -80.550
1284.1000, -84.676
1284.2000,-210.000
1284.3000, -92.482
1284.4000,-210.000
1284.5000,-210.000
1284.6000, -93.655
1284.7000, -82.805
1284.8000,-210.000
1284.9000,-210.000
1285.0000, -85.218
1285.1000, -88.396
1285.2000, -93.189
1285.3000, -85.591
1285.4000, -93.232
1285.5000,-210.000
1285.6000, -94.085
1285.7000,-210.000
1285.8000, -87.860
1285.9000, -87.131
1286.0000,-110.876
1286.1000, -91.078
1286.2000,-210.000
1286.3000, -84.076
1286.4000,-210.000
1286.5000,-210.000
1286.6000, -84.243
1286.7000, -95.386
1286.8000, -87.103
1286.9000, -87.481
1287.0000, -90.874
1287.1000, -86.533
1287.2000, -81.938
1287.3000,-210.000
1287.4000,-210.000
1287.5000, -86.158
1287.6000, -93.680
1287.7000,-210.000
1287.8000, -93.100
1287.9000,-210.000
1288.0000, -84.175
1288.1000, -89.971
1288.2000,-210.000
1288.3000,-210.000
1288.4000, -89.042
1288.5000,-210.000
1288.6000, -85.155
1288.7000,-210.000
1288.8000, -85.313
1288.9000, -91.172
1289.0000,-210.000
1289.1000, -87.160
1289.2000,-210.000
1289.3000, -86.740
1289.4000, -91.746
1289.5000, -88.456
1289.6000, -96.418
1289.7000,-210.000
1289.8000,-210.000
1289.9000, -89.974
1290.0000, -85.613
1290.1000,-210.000
1290.2000, -94.187
1290.3000, -88.266
1290.4000,-210.000
1290.5000, -84.696
1290.6000, -86.754
1290.7000, -92.544
1290.8000, -87.557
1290.9000, -86.379
1291.0000,-210.000
1291.1000,-210.000
1291.2000, -93.278
1291.3000, -91.605
1291.4000, -86.302
1291.5000, -84.122
1291.6000, -90.989
1291.7000, -86.558
1291.8000,-210.000
1291.9000, -89.433
1292.0000,-210.000
1292.1000, -94.894
1292.2000, -84.626
1292.3000,-210.000
1292.4000, -90.329
1292.5000,-210.000
1292.6000,-210.000
1292.7000, -93.374
1292.8000, -90.272
1292.9000,-210.000
1293.0000, -81.434
1293.1000, -85.285
1293.2000,-210.000
1293.3000,-210.000
1293.4000, -81.595
1293.5000, -95.147
1293.6000,-210.000
1293.7000,-210.000
1293.8000, -84.144
1293.9000,-210.000
1294.0000, -85.073
1294.1000,-210.000
1294.2000, -87.697
1294.3000,-210.000
1294.4000, -85.922
1294.5000, -86.410
1294.6000, -91.808
1294.7000, -84.063
1294.8000,-210.000
1294.9000,-210.000
1295.0000, -85.743
1295.1000,-210.000
1295.2000,-210.000
1295.3000,-210.000
1295.4000, -81.007
1295.5000, -94.381
1295.6000, -84.373
1295.7000,-210.000
1295.8000, -84.657
1295.9000, -85.648
1296.0000, -95.344
1296.1000, -87.283
1296.2000, -84.192
1296.3000, -93.273
1296.4000,-210.000
1296.5000,-210.000
1296.6000, -85.988
1296.7000,-210.000
1296.8000, -82.432
1296.9000,-210.000
1297.0000, -88.024
1297.1000,-210.000
1297.2000, -83.394
1297.3000,-210.000
1297.4000,-210.000
1297.5000,-210.000
1297.6000, -85.952
1297.7000, -83.771
1297.8000, -82.287
1297.9000, -81.652
1298.0000,-210.000
1298.1000, -84.635
1298.2000,-210.000
1298.3000,-111.018
1298.4000, -85.842
1298.5000,-210.000
1298.6000, -91.788
1298.7000,-210.000
1298.8000,-106.378
1298.9000, -89.913
1299.0000, -86.643
1299.1000, -97.897
1299.2000, -86.578
1299.3000, -87.962
1299.4000, -87.493
1299.5000,-210.000
1299.6000, -83.616
1299.7000,-210.000
1299.8000, -94.677
1299.9000, -85.502
1300.0000, -90.922
1300.1000, -85.875
1300.2000, -87.003
1300.3000,-210.000
1300.4000, -91.174
1300.5000, -89.615
1300.6000, -93.387
1300.7000, -85.593
1300.8000, -87.230
1300.9000,-210.000
1301.0000,-210.000
1301.1000, -86.855
1301.2000,-210.000
1301.3000, -85.564
1301.4000, -84.548
1301.5000, -87.018
1301.6000, -89.275
1301.7000, -87.442
1301.8000, -88.614
1301.9000, -87.882
1302.0000,-210.000
1302.1000, -86.099
1302.2000, -94.006
1302.3000, -89.289
1302.4000,-210.000
1302.5000, -87.526
1302.6000, -87.910
1302.7000, -86.065
1302.8000, -88.943
1302.9000, -89.078
1303.0000,-210.000
1303.1000, -87.852
1303.2000, -94.154
1303.3000, -99.332
1303.4000, -85.470
1303.5000, -87.858
1303.6000, -87.438
1303.7000, -92.221
1303.8000,-210.000
1303.9000, -81.291
1304.0000, -84.919
1304.1000,-210.000
1304.2000,-210.000
1304.3000, -89.896
1304.4000,-210.000
1304.5000, -87.007
1304.6000, -96.670
1304.7000,-210.000
1304.8000,-210.000
1304.9000,-210.000
1305.0000, -93.342
1305.1000, -84.438
1305.2000, -83.797
1305.3000, -90.966
1305.4000,-210.000
1305.5000, -80.725
1305.6000, -87.429
1305.7000, -86.216
1305.8000,-210.000
1305.9000, -95.235
1306.0000, -88.118
1306.1000,-210.000
1306.2000,-210.000
1306.3000,-210.000
1306.4000, -89.037
1306.5000,-210.000
1306.6000, -84.408
1306.7000,-210.000
1306.8000, -85.957
1306.9000, -91.076
1307.0000, -83.043
1307.1000,-210.000
1307.2000, -87.460
1307.3000, -83.823
1307.4000, -87.107
1307.5000,-104.622
1307.6000,-210.000
1307.7000, -84.892
1307.8000, -86.441
1307.9000, -80.914
1308.0000,-210.000
1308.1000,-210.000
1308.2000,-210.000
1308.3000, -81.171
1308.4000, -83.946
1308.5000,-210.000
1308.6000, -81.411
1308.7000,-210.000
1308.8000, -83.435
1308.9000,-210.000
1309.0000,-210.000
1309.1000, -83.157
1309.2000, -94.750
1309.3000, -85.511
1309.4000, -95.696
1309.5000, -85.338
1309.6000, -85.428
1309.7000, -85.437
1309.8000,-210.000
1309.9000, -86.479
1310.0000, -81.959
1310.1000,-210.000
1310.2000,-210.000
1310.3000, -84.577
1310.4000, -88.192
1310.5000, -86.146
1310.6000,-210.000
1310.7000, -87.398
1310.8000, -90.387
1310.9000,-210.000
1311.0000, -86.690
1311.1000,-106.311
1311.2000,-210.000
1311.3000, -89.776
1311.4000, -88.610
1311.5000,-210.000
1311.6000, -86.180
1311.7000, -85.411
1311.8000, -88.208
1311.9000,-210.000
1312.0000, -83.491
1312.1000, -85.860
1312.2000,-210.000
1312.3000, -85.520
1312.4000, -87.493
1312.5000, -84.859
1312.6000,-210.000
1312.7000, -83.739
1312.8000,-210.000
1312.9000, -85.683
1313.0000, -90.407
1313.1000, -98.021
1313.2000,-210.000
1313.3000, -83.429
1313.4000,-210.000
1313.5000, -96.460
1313.6000, -85.595
1313.7000, -88.698
1313.8000, -85.588
1313.9000, -85.172
1314.0000, -96.077
1314.1000,-210.000
1314.2000,-210.000
1314.3000, -86.708
1314.4000, -88.924
1314.5000, -93.199
1314.6000, -94.148
1314.7000,-210.000
1314.8000, -89.272
1314.9000, -88.864
1315.0000,-210.000
1315.1000, -94.790
1315.2000, -83.149
1315.3000,-210.000
1315.4000,-210.000
1315.5000, -86.593
1315.6000,-210.000
1315.7000, -83.833
1315.8000, -86.993
1315.9000, -87.970
1316.0000, -93.474
1316.1000, -98.522
1316.2000, -86.275
1316.3000, -84.364
1316.4000,-210.000
1316.5000, -84.641
1316.6000, -93.395
1316.7000, -89.538
1316.8000, -86.500
1316.9000,-210.000
1317.0000, -88.022
1317.1000, -89.413
1317.2000, -86.566
1317.3000, -91.872
1317.4000, -92.200
1317.5000,-100.340
1317.6000, -85.740
1317.7000, -84.372
1317.8000, -90.191
1317.9000, -86.923
1318.0000,-210.000
1318.1000, -87.542
1318.2000, -86.182
1318.3000, -83.723
1318.4000, -90.947
1318.5000, -86.086
1318.6000, -83.965
1318.7000, -95.364
1318.8000, -82.104
1318.9000, -84.282
1319.0000, -83.437
1319.1000, -86.079
1319.2000, -82.799
1319.3000, -81.808
1319.4000, -84.008
1319.5000, -83.581
1319.6000, -81.725
1319.7000, -85.650
1319.8000, -82.415
1319.9000, -83.406
1320.0000, -86.066
1320.1000, -81.483
1320.2000, -82.863
1320.3000,-210.000
1320.4000, -82.257
1320.5000, -87.545
1320.6000, -93.760
1320.7000, -86.806
1320.8000, -89.203
1320.9000, -95.784
1321.0000, -86.655
1321.1000, -80.085
1321.2000, -83.678
1321.3000,-210.000
1321.4000,-210.000
1321.5000, -79.735
1321.6000, -91.305
1321.7000, -86.021
1321.8000,-210.000
1321.9000, -84.842
1322.0000, -86.663
1322.1000, -83.539
1322.2000, -83.553
1322.3000, -85.028
1322.4000,-210.000
1322.5000, -83.635
1322.6000, -85.460
1322.7000, -91.842
1322.8000,-210.000
1322.9000,-210.000
1323.0000, -83.046
1323.1000, -88.000
1323.2000, -84.199
1323.3000, -82.074
1323.4000,-210.000
1323.5000,-210.000
1323.6000, -81.673
1323.7000, -91.475
1323.8000,-210.000
1323.9000, -83.562
1324.0000, -92.465
1324.1000,-210.000
1324.2000,-210.000
1324.3000, -84.964
1324.4000, -89.492
1324.5000, -86.863
1324.6000,-210.000
1324.7000,-210.000
1324.8000, -86.387
1324.9000,-210.000
1325.0000, -90.785
1325.1000, -83.242
1325.2000, -90.465
1325.3000,-210.000
1325.4000,-210.000
1325.5000, -78.901
1325.6000,-210.000
1325.7000,-109.059
1325.8000,-210.000
1325.9000, -84.463
1326.0000,-210.000
1326.1000, -83.259
1326.2000, -87.902
1326.3000,-210.000
1326.4000,-210.000
1326.5000, -87.535
1326.6000, -85.446
1326.7000, -87.864
1326.8000,-210.000
1326.9000, -88.620
1327.0000, -87.392
1327.1000, -87.178
1327.2000,-210.000
1327.3000, -79.853
1327.4000,-210.000
1327.5000, -83.277
1327.6000, -90.681
1327.7000, -86.733
1327.8000,-210.000
1327.9000,-210.000
1328.0000, -85.297
1328.1000, -87.699
1328.2000,-210.000
1328.3000,-210.000
1328.4000, -82.558
1328.5000,-210.000
1328.6000, -85.021
1328.7000, -96.476
1328.8000,-210.000
1328.9000, -90.798
1329.0000, -84.789
1329.1000, -84.980
1329.2000,-210.000
1329.3000, -90.367
1329.4000,-103.696
1329.5000,-100.397
1329.6000,-210.000
1329.7000, -86.794
1329.8000, -86.594
1329.9000, -84.099
1330.0000, -87.350
1330.1000,-210.000
1330.2000, -86.345
1330.3000, -88.362
1330.4000, -90.291
1330.5000,-210.000
1330.6000, -95.797
1330.7000,-210.000
1330.8000, -88.028
1330.9000, -92.605
1331.0000, -98.769
1331.1000, -85.581
1331.2000, -95.392
1331.3000, -91.164
1331.4000, -89.922
1331.5000,-210.000
1331.6000, -89.186
1331.7000, -84.573
1331.8000, -85.438
1331.9000, -89.680
1332.0000,-210.000
1332.1000, -86.159
1332.2000,-210.000
1332.3000, -86.352
1332.4000,-210.000
1332.5000, -86.022
1332.6000,-210.000
1332.7000, -85.036
1332.8000, -86.354
1332.9000,-210.000
1333.0000,-100.729
1333.1000, -84.724
1333.2000,-210.000
1333.3000, -93.132
1333.4000,-210.000
1333.5000,-210.000
1333.6000,-210.000
1333.7000, -82.874
1333.8000, -84.582
1333.9000, -87.981
1334.0000,-210.000
1334.1000, -87.821
1334.2000, -84.550
1334.3000, -88.635
1334.4000, -83.717
1334.5000, -92.427
1334.6000, -88.029
1334.7000, -86.354
1334.8000, -85.882
1334.9000, -87.773
1335.0000, -85.510
1335.1000, -86.523
1335.2000, -83.544
1335.3000, -98.572
1335.4000, -92.109
1335.5000, -84.290
1335.6000, -83.086
1335.7000, -97.124
1335.8000, -97.385
1335.9000, -85.287
1336.0000, -84.542
1336.1000, -86.837
1336.2000, -83.098
1336.3000, -86.177
1336.4000, -85.090
1336.5000, -84.514
1336.6000, -85.841
1336.7000, -83.935
1336.8000, -86.772
1336.9000,-210.000
1337.0000,-210.000
1337.1000, -81.040
1337.2000,-210.000
1337.3000, -83.124
1337.4000,-210.000
1337.5000,-210.000
1337.6000, -85.464
1337.7000, -85.473
1337.8000, -86.338
1337.9000, -88.091
1338.0000, -85.532
1338.1000, -90.097
1338.2000, -87.207
1338.3000, -86.411
1338.4000, -84.436
1338.5000, -85.755
1338.6000, -85.576
1338.7000, -84.310
1338.8000, -85.113
1338.9000, -82.900
1339.0000, -85.969
1339.1000, -82.206
1339.2000, -84.366
1339.3000, -83.925
1339.4000, -80.298
1339.5000,-210.000
1339.6000, -86.118
1339.7000, -83.032
1339.8000, -83.055
1339.9000, -89.319
1340.0000, -85.568
1340.1000,-210.000
1340.2000, -88.590
1340.3000, -87.950
1340.4000, -84.748
1340.5000, -83.176
1340.6000,-210.000
1340.7000, -87.234
1340.8000, -84.559
1340.9000, -87.615
1341.0000,-210.000
1341.1000, -85.064
1341.2000, -84.927
1341.3000, -84.604
1341.4000, -87.461
1341.5000, -84.270
1341.6000, -84.615
1341.7000, -85.304
1341.8000, -98.390
1341.9000, -82.156
1342.0000, -84.118
1342.1000,-106.589
1342.2000, -85.356
1342.3000,-210.000
1342.4000, -81.320
1342.5000, -92.256
1342.6000,-210.000
1342.7000,-210.000
1342.8000, -87.308
1342.9000, -83.855
1343.0000,-210.000
1343.1000, -86.602
1343.2000, -83.753
1343.3000, -88.758
1343.4000,-210.000
1343.5000, -98.761
1343.6000, -91.802
1343.7000, -83.964
1343.8000,-210.000
1343.9000, -82.784
1344.0000, -89.235
1344.1000,-210.000
1344.2000, -88.009
1344.3000, -83.700
1344.4000,-210.000
1344.5000, -91.194
1344.6000, -92.413
1344.7000,-210.000
1344.8000,-210.000
1344.9000, -94.996
1345.0000, -84.828
1345.1000, -89.443
1345.2000, -91.609
1345.3000,-210.000
1345.4000, -87.407
1345.5000,-210.000
1345.6000, -91.857
1345.7000, -89.315
1345.8000, -93.174
1345.9000, -91.682
1346.0000, -92.126
1346.1000, -88.636
1346.2000,-210.000
1346.3000, -86.765
1346.4000, -91.635
1346.5000, -85.980
1346.6000,-100.072
1346.7000, -95.213
1346.8000, -90.669
1346.9000,-210.000
1347.0000, -92.721
1347.1000,-210.000
1347.2000, -84.830
1347.3000, -86.282
1347.4000, -92.296
1347.5000, -85.608
1347.6000,-210.000
1347.7000, -87.000
1347.8000, -87.142
1347.9000, -91.177
1348.0000,-210.000
1348.1000, -88.996
1348.2000, -88.035
1348.3000,-210.000
1348.4000, -85.611
1348.5000,-210.000
1348.6000, -83.999
1348.7000, -85.715
1348.8000, -92.710
1348.9000, -94.301
1349.0000, -84.089
1349.1000,-210.000
1349.2000, -85.680
1349.3000, -92.217
1349.4000, -86.640
1349.5000, -84.147
1349.6000, -87.075
1349.7000,-210.000
1349.8000, -84.915
1349.9000, -91.277
1350.0000, -90.708
1350.1000, -88.754
1350.2000, -84.740
1350.3000,-210.000
1350.4000, -94.428
1350.5000, -87.177
1350.6000,-210.000
1350.7000, -96.159
1350.8000, -82.867
1350.9000, -88.663
1351.0000, -83.455
1351.1000,-210.000
1351.2000,-210.000
1351.3000, -95.656
1351.4000, -89.911
1351.5000, -82.219
1351.6000,-210.000
1351.7000, -86.779
1351.8000, -86.889
1351.9000, -86.380
1352.0000, -93.208
1352.1000, -85.564
1352.2000, -87.088
1352.3000,-210.000
1352.4000, -90.938
1352.5000, -85.458
1352.6000, -84.717
1352.7000,-210.000
1352.8000, -86.433
1352.9000, -87.676
1353.0000,-210.000
1353.1000, -81.680
1353.2000,-210.000
1353.3000,-210.000
1353.4000, -80.084
1353.5000,-210.000
1353.6000, -92.308
1353.7000, -85.551
1353.8000,-210.000
1353.9000, -91.272
1354.0000, -83.198
1354.1000, -85.015
1354.2000, -85.768
1354.3000,-210.000
1354.4000, -86.590
1354.5000, -85.164
1354.6000, -87.265
1354.7000, -81.015
1354.8000,-210.000
1354.9000, -84.988
1355.0000,-210.000
1355.1000, -89.304
1355.2000, -84.686
1355.3000, -90.591
1355.4000, -83.204
1355.5000,-210.000
1355.6000, -86.143
1355.7000,-210.000
1355.8000, -84.943
1355.9000, -93.679
1356.0000, -86.039
1356.1000, -90.359
1356.2000, -90.342
1356.3000, -88.620
1356.4000, -84.303
1356.5000,-210.000
1356.6000, -86.868
1356.7000, -81.723
1356.8000,-210.000
1356.9000, -88.256
1357.0000, -95.542
1357.1000, -85.245
1357.2000, -83.469
1357.3000, -86.992
1357.4000, -83.385
1357.5000, -82.981
1357.6000,-210.000
1357.7000, -84.223
1357.8000, -87.997
1357.9000, -85.117
1358.0000, -85.796
1358.1000, -88.677
1358.2000, -89.319
1358.3000, -89.283
1358.4000, -84.042
1358.5000,-100.977
1358.6000, -86.016
1358.7000, -97.928
1358.8000, -94.544
1358.9000, -89.073
1359.0000, -79.941
1359.1000,-210.000
1359.2000,-210.000
1359.3000, -86.856
1359.4000, -84.658
1359.5000, -89.776
1359.6000,-210.000
1359.7000, -87.464
1359.8000, -86.090
1359.9000,-210.000
1360.0000, -87.283
1360.1000,-210.000
1360.2000, -83.432
1360.3000,-210.000
1360.4000, -89.581
1360.5000, -90.193
1360.6000,-210.000
1360.7000, -86.841
1360.8000, -91.446
1360.9000, -88.198
1361.0000, -87.937
1361.1000, -90.999
1361.2000, -81.158
1361.3000,-210.000
1361.4000,-210.000
1361.5000, -87.621
1361.6000,-210.000
1361.7000, -87.363
1361.8000,-210.000
1361.9000, -86.458
1362.0000, -85.746
1362.1000,-210.000
1362.2000, -95.680
1362.3000, -85.201
1362.4000, -82.878
1362.5000,-210.000
1362.6000,-210.000
1362.7000, -82.721
1362.8000, -86.857
1362.9000,-210.000
1363.0000,-210.000
1363.1000,-210.000
1363.2000, -80.397
1363.3000,-210.000
1363.4000, -96.010
1363.5000, -85.652
1363.6000,-210.000
1363.7000, -93.244
1363.8000,-210.000
1363.9000, -94.682
1364.0000,-210.000
1364.1000, -92.685
1364.2000, -90.121
1364.3000,-210.000
1364.4000,-100.523
1364.5000, -92.658
1364.6000, -85.613
1364.7000, -87.787
1364.8000, -91.018
1364.9000, -81.751
1365.0000,-210.000
1365.1000,-210.000
1365.2000, -89.831
1365.3000, -85.132
1365.4000,-210.000
1365.5000, -82.747
1365.6000, -88.272
1365.7000, -90.678
1365.8000,-210.000
1365.9000, -91.660
1366.0000, -89.520
1366.1000,-210.000
1366.2000, -87.237
1366.3000, -94.786
1366.4000, -92.248
1366.5000, -86.016
1366.6000, -95.093
1366.7000, -87.852
1366.8000, -85.625
1366.9000,-210.000
1367.0000,-210.000
1367.1000, -91.542
1367.2000, -83.902
1367.3000, -88.659
1367.4000, -83.207
1367.5000,-102.280
1367.6000, -87.495
1367.7000,-100.146
1367.8000,-210.000
1367.9000, -85.022
1368.0000, -90.343
1368.1000, -83.542
1368.2000, -82.951
1368.3000,-210.000
1368.4000, -88.143
1368.5000, -82.984
1368.6000, -90.555
1368.7000,-210.000
1368.8000, -82.933
1368.9000, -94.700
1369.0000,-210.000
1369.1000, -87.361
1369.2000, -94.957
1369.3000,-210.000
1369.4000, -83.744
1369.5000,-210.000
1369.6000, -85.648
1369.7000,-210.000
1369.8000,-100.618
1369.9000, -93.878
1370.0000, -88.875
1370.1000, -88.364
1370.2000, -85.417
1370.3000,-210.000
1370.4000, -92.249
1370.5000, -89.436
1370.6000, -86.360
1370.7000,-210.000
1370.8000,-210.000
1370.9000, -89.547
1371.0000, -90.955
1371.1000, -84.608
1371.2000, -86.168
1371.3000, -92.917
1371.4000,-210.000
1371.5000, -89.431
1371.6000, -83.719
1371.7000, -90.872
1371.8000,-105.363
1371.9000, -83.930
1372.0000, -87.959
1372.1000, -96.436
1372.2000, -85.852
1372.3000, -92.949
1372.4000, -85.672
1372.5000,-210.000
1372.6000,-210.000
1372.7000, -82.974
1372.8000,-210.000
1372.9000, -85.558
1373.0000,-210.000
1373.1000, -85.558
1373.2000, -96.666
1373.3000, -88.514
1373.4000, -83.395
1373.5000,-210.000
1373.6000,-210.000
1373.7000, -86.958
1373.8000, -95.845
1373.9000,-210.000
1374.0000, -86.582
1374.1000, -82.823
1374.2000,-210.000
1374.3000, -82.725
1374.4000, -87.949
1374.5000, -94.936
1374.6000, -90.182
1374.7000, -87.924
1374.8000,-210.000
1374.9000,-210.000
1375.0000, -80.105
1375.1000,-210.000
1375.2000,-210.000
1375.3000,-210.000
1375.4000, -92.065
1375.5000,-210.000
1375.6000, -83.083
1375.7000, -87.486
1375.8000, -94.443
1375.9000, -95.618
1376.0000, -85.964
1376.1000, -86.637
1376.2000, -85.775
1376.3000,-210.000
1376.4000, -82.674
1376.5000, -87.069
1376.6000,-210.000
1376.7000,-210.000
1376.8000,-210.000
1376.9000, -85.823
1377.0000,-210.000
1377.1000, -90.985
1377.2000, -83.539
1377.3000, -88.922
1377.4000,-210.000
1377.5000, -95.428
1377.6000, -90.057
1377.7000, -86.383
1377.8000, -87.490
1377.9000, -90.194
1378.0000,-210.000
1378.1000, -80.945
1378.2000, -84.848
1378.3000,-210.000
1378.4000, -82.736
1378.5000, -80.869
1378.6000,-210.000
1378.7000,-210.000
1378.8000, -85.631
1378.9000, -86.427
1379.0000,-210.000
1379.1000,-210.000
1379.2000, -80.231
1379.3000, -88.660
1379.4000, -86.895
1379.5000, -89.345
1379.6000, -84.189
1379.7000, -88.111
1379.8000,-210.000
1379.9000, -84.535
1380.0000, -85.189
1380.1000,-210.000
1380.2000, -92.109
1380.3000, -83.389
1380.4000, -88.111
1380.5000, -92.417
1380.6000, -86.524
1380.7000,-210.000
1380.8000, -83.523
1380.9000,-210.000
1381.0000, -84.071
1381.1000,-210.000
1381.2000, -84.792
1381.3000, -86.660
1381.4000,-210.000
1381.5000, -83.161
1381.6000,-210.000
1381.7000, -86.824
1381.8000, -88.020
1381.9000,-210.000
1382.0000, -96.902
1382.1000,-210.000
1382.2000,-210.000
1382.3000, -84.167
1382.4000, -83.764
1382.5000,-210.000
1382.6000, -83.862
1382.7000, -87.958
1382.8000,-210.000
1382.9000, -85.986
1383.0000, -92.521
1383.1000, -83.720
1383.2000,-210.000
1383.3000,-210.000
1383.4000, -86.017
1383.5000,-210.000
1383.6000, -82.926
1383.7000,-210.000
1383.8000, -97.231
1383.9000, -85.085
1384.0000,-210.000
1384.1000, -90.949
1384.2000, -85.923
1384.3000, -86.028
1384.4000,-210.000
1384.5000, -84.027
1384.6000, -90.970
1384.7000, -97.458
1384.8000, -88.146
1384.9000, -86.334
1385.0000, -92.355
1385.1000,-210.000
1385.2000,-210.000
1385.3000, -86.920
1385.4000, -95.611
1385.5000, -86.716
1385.6000,-210.000
1385.7000, -84.938
1385.8000,-210.000
1385.9000, -79.842
1386.0000, -85.958
1386.1000,-210.000
1386.2000, -85.513
1386.3000, -84.632
1386.4000, -85.878
1386.5000,-109.517
1386.6000,-210.000
1386.7000, -90.016
1386.8000, -99.002
1386.9000, -83.692
1387.0000, -87.418
1387.1000,-210.000
1387.2000,-210.000
1387.3000, -89.332
1387.4000, -87.732
1387.5000, -92.885
1387.6000, -88.651
1387.7000, -86.448
1387.8000, -88.288
1387.9000, -88.426
1388.0000, -85.441
1388.1000, -90.402
1388.2000, -86.907
1388.3000, -87.023
1388.4000,-210.000
1388.5000, -85.050
1388.6000, -87.575
1388.7000,-210.000
1388.8000, -83.908
1388.9000,-210.000
1389.0000, -85.197
1389.1000,-210.000
1389.2000,-210.000
1389.3000, -85.856
1389.4000,-210.000
1389.5000,-210.000
1389.6000,-210.000
1389.7000, -86.212
1389.8000,-210.000
1389.9000, -86.070
1390.0000, -90.739
1390.1000, -83.370
1390.2000,-105.996
1390.3000,-210.000
1390.4000, -86.855
1390.5000, -89.020
1390.6000, -88.526
1390.7000, -89.796
1390.8000, -87.457
1390.9000, -80.102
1391.0000,-210.000
1391.1000,-210.000
1391.2000, -88.875
1391.3000,-210.000
1391.4000, -86.288
1391.5000, -82.742
1391.6000,-210.000
1391.7000,-210.000
1391.8000,-210.000
1391.9000, -86.640
1392.0000,-210.000
1392.1000,-210.000
1392.2000, -84.974
1392.3000, -93.256
1392.4000, -83.728
1392.5000,-210.000
1392.6000, -94.463
1392.7000,-210.000
1392.8000, -86.998
1392.9000,-210.000
1393.0000, -86.929
1393.1000, -95.569
1393.2000, -85.878
1393.3000, -86.775
1393.4000, -87.175
1393.5000,-210.000
1393.6000, -88.433
1393.7000, -90.048
1393.8000, -84.491
1393.9000,-210.000
1394.0000, -88.897
1394.1000, -87.012
1394.2000, -89.853
1394.3000, -90.013
1394.4000,-210.000
1394.5000, -87.183
1394.6000,-210.000
1394.7000, -87.914
1394.8000, -86.280
1394.9000, -90.463
1395.0000,-210.000
1395.1000,-210.000
1395.2000, -86.149
1395.3000, -89.087
1395.4000,-210.000
1395.5000, -86.500
1395.6000,-210.000
1395.7000, -91.453
1395.8000, -83.946
1395.9000, -85.356
1396.0000,-210.000
1396.1000, -85.275
1396.2000, -85.120
1396.3000, -85.889
1396.4000, -95.658
1396.5000,-210.000
1396.6000, -84.398
1396.7000,-210.000
1396.8000, -87.040
1396.9000, -97.111
1397.0000,-210.000
1397.1000,-210.000
1397.2000, -86.504
1397.3000, -85.553
1397.4000,-210.000
1397.5000,-104.052
1397.6000, -85.402
1397.7000, -84.621
1397.8000, -86.165
1397.9000, -85.772
1398.0000,-210.000
1398.1000, -93.513
1398.2000,-210.000
1398.3000, -99.760
1398.4000, -85.918
1398.5000, -83.138
1398.6000,-210.000
1398.7000,-210.000
1398.8000,-210.000
1398.9000, -87.297
1399.0000, -88.115
1399.1000,-210.000
1399.2000, -94.546
1399.3000, -86.924
1399.4000, -89.415
1399.5000, -88.188
1399.6000, -90.101
1399.7000, -88.938
1399.8000, -88.222
1399.9000, -89.859
1400.0000,-210.000
1400.1000, -89.129
1400.2000,-210.000
1400.3000, -89.789
1400.4000, -86.024
1400.5000, -91.013
1400.6000,-210.000
1400.7000, -88.448
1400.8000,-100.630
1400.9000, -86.600
1401.0000, -83.351
1401.1000,-210.000
1401.2000, -88.903
1401.3000, -86.169
1401.4000, -88.441
1401.5000, -99.842
1401.6000,-210.000
1401.7000,-210.000
1401.8000, -86.213
1401.9000, -84.161
1402.0000,-210.000
1402.1000, -89.977
1402.2000, -94.465
1402.3000, -85.797
1402.4000,-210.000
1402.5000, -90.039
1402.6000, -86.017
1402.7000, -87.042
1402.8000,-210.000
1402.9000, -86.047
1403.0000, -88.086
1403.1000, -93.097
1403.2000, -90.512
1403.3000, -94.465
1403.4000, -98.379
1403.5000, -87.174
1403.6000, -86.851
1403.7000, -87.857
1403.8000, -89.181
1403.9000, -86.946
1404.0000,-210.000
1404.1000, -94.311
1404.2000, -86.234
1404.3000, -86.584
1404.4000, -88.672
1404.5000, -91.031
1404.6000, -86.299
1404.7000, -92.782
1404.8000, -92.354
1404.9000,-210.000
1405.0000, -83.485
1405.1000, -86.694
1405.2000,-210.000
1405.3000, -91.563
1405.4000, -82.945
1405.5000,-210.000
1405.6000,-210.000
1405.7000, -83.157
1405.8000, -89.484
1405.9000,-210.000
1406.0000,-210.000
1406.1000, -92.815
1406.2000,-210.000
1406.3000,-102.171
1406.4000, -84.037
1406.5000, -87.653
1406.6000, -87.941
1406.7000, -87.017
1406.8000, -86.240
1406.9000,-210.000
1407.0000, -82.549
1407.1000, -85.204
1407.2000, -90.482
1407.3000,-210.000
1407.4000, -84.913
1407.5000, -85.707
1407.6000,-210.000
1407.7000,-210.000
1407.8000, -84.890
1407.9000,-210.000
1408.0000, -84.703
1408.1000,-210.000
1408.2000, -97.445
1408.3000, -89.918
1408.4000, -84.092
1408.5000, -88.605
1408.6000, -80.639
1408.7000,-210.000
1408.8000, -82.227
1408.9000, -82.746
1409.0000,-210.000
1409.1000,-210.000
1409.2000, -83.827
1409.3000,-210.000
1409.4000,-210.000
1409.5000, -86.639
1409.6000, -83.703
1409.7000, -86.526
1409.8000,-210.000
1409.9000,-210.000
1410.0000, -85.528
1410.1000, -84.607
1410.2000, -83.686
1410.3000,-210.000
1410.4000, -88.445
1410.5000, -86.724
1410.6000,-210.000
1410.7000, -88.787
1410.8000, -82.219
1410.9000, -81.978
1411.0000,-210.000
1411.1000, -92.400
1411.2000, -83.412
1411.3000,-210.000
1411.4000, -81.687
1411.5000, -85.655
1411.6000,-210.000
1411.7000,-210.000
1411.8000, -83.964
1411.9000, -92.436
1412.0000, -85.099
1412.1000,-210.000
1412.2000, -91.429
1412.3000, -81.246
1412.4000,-210.000
1412.5000, -84.018
1412.6000, -86.568
1412.7000, -81.107
1412.8000,-210.000
1412.9000, -98.822
1413.0000, -85.132
1413.1000,-210.000
1413.2000, -82.286
1413.3000,-210.000
1413.4000, -85.260
1413.5000,-210.000
1413.6000, -81.259
1413.7000, -86.039
1413.8000, -80.364
1413.9000, -86.175
1414.0000, -91.223
1414.1000,-210.000
1414.2000,-210.000
1414.3000, -85.201
1414.4000, -84.393
1414.5000, -86.164
1414.6000,-210.000
1414.7000, -83.311
1414.8000,-210.000
1414.9000, -84.501
1415.0000, -86.599
1415.1000, -83.454
1415.2000,-210.000
1415.3000, -84.095
1415.4000, -88.841
1415.5000, -83.984
1415.6000, -82.792
1415.7000,-210.000
1415.8000, -87.744
1415.9000, -88.891
1416.0000, -86.034
1416.1000,-210.000
1416.2000,-100.151
1416.3000, -85.023
1416.4000, -83.135
1416.5000,-210.000
1416.6000, -90.988
1416.7000, -89.273
1416.8000, -84.188
1416.9000, -89.021
1417.0000,-210.000
1417.1000, -88.028
1417.2000, -92.551
1417.3000, -88.169
1417.4000, -88.537
1417.5000,-210.000
1417.6000, -84.737
1417.7000, -93.244
1417.8000, -85.630
1417.9000, -84.931
1418.0000,-210.000
1418.1000, -81.574
1418.2000,-210.000
1418.3000, -99.601
1418.4000,-210.000
1418.5000,-101.193
1418.6000,-210.000
1418.7000, -89.764
1418.8000, -86.313
1418.9000, -85.055
1419.0000,-210.000
1419.1000, -87.637
1419.2000,-210.000
1419.3000, -87.665
1419.4000,-210.000
1419.5000, -86.076
1419.6000, -90.956
1419.7000,-210.000
1419.8000, -83.628
1419.9000, -85.947
1420.0000, -86.114
1420.1000, -99.136
1420.2000, -85.373
1420.3000, -96.308
1420.4000, -86.488
1420.5000,-210.000
1420.6000, -82.894
1420.7000, -87.755
1420.8000, -91.986
1420.9000, -90.283
1421.0000,-210.000
1421.1000, -87.875
1421.2000,-210.000
1421.3000, -87.049
1421.4000,-210.000
1421.5000, -90.594
1421.6000,-210.000
1421.7000,-210.000
1421.8000, -98.334
1421.9000, -84.656
1422.0000,-210.000
1422.1000, -83.286
1422.2000,-210.000
1422.3000, -95.500
1422.4000,-210.000
1422.5000, -95.692
1422.6000, -88.076
1422.7000, -88.335
1422.8000, -86.227
1422.9000,-210.000
1423.0000, -84.832
1423.1000, -85.786
1423.2000, -88.812
1423.3000, -83.629
1423.4000,-210.000
1423.5000, -84.364
1423.6000,-100.489
1423.7000, -89.028
1423.8000, -87.632
1423.9000, -83.162
1424.0000,-210.000
1424.1000,-210.000
1424.2000, -85.846
1424.3000, -86.772
1424.4000, -90.751
1424.5000, -83.154
1424.6000, -92.732
1424.7000, -89.994
1424.8000,-210.000
1424.9000, -87.034
1425.0000, -84.846
1425.1000, -89.912
1425.2000,-210.000
1425.3000, -80.101
1425.4000,-210.000
1425.5000, -98.277
1425.6000,-210.000
1425.7000, -90.406
1425.8000, -83.294
1425.9000, -82.529
1426.0000, -86.294
1426.1000,-210.000
1426.2000, -82.628
1426.3000,-210.000
1426.4000, -88.585
1426.5000, -87.359
1426.6000, -87.762
1426.7000, -88.808
1426.8000, -85.956
1426.9000, -86.511
1427.0000,-210.000
1427.1000,-100.198
1427.2000,-210.000
1427.3000, -87.586
1427.4000, -94.478
1427.5000, -87.946
1427.6000,-210.000
1427.7000, -92.459
1427.8000, -91.590
1427.9000, -88.138
1428.0000,-210.000
1428.1000, -88.249
1428.2000, -83.106
1428.3000, -90.591
1428.4000,-210.000
1428.5000, -91.183
1428.6000,-210.000
1428.7000, -85.842
1428.8000, -88.818
1428.9000, -84.362
1429.0000, -84.887
1429.1000, -83.693
1429.2000,-210.000
1429.3000,-106.595
1429.4000, -85.347
1429.5000, -85.282
1429.6000, -87.672
1429.7000, -88.954
1429.8000, -88.949
1429.9000,-210.000
1430.0000, -94.079
1430.1000, -83.147
1430.2000,-210.000
1430.3000, -82.542
1430.4000,-210.000
1430.5000, -86.020
1430.6000, -86.459
1430.7000,-210.000
1430.8000,-210.000
1430.9000, -86.609
1431.0000, -87.820
1431.1000,-210.000
1431.2000, -99.301
1431.3000,-210.000
1431.4000, -81.601
1431.5000, -83.364
1431.6000, -94.295
1431.7000,-210.000
1431.8000,-210.000
1431.9000,-210.000
1432.0000, -81.259
1432.1000,-210.000
1432.2000,-210.000
1432.3000, -82.154
1432.4000,-210.000
1432.5000,-210.000
1432.6000, -88.979
1432.7000, -84.442
1432.8000, -89.730
1432.9000, -90.519
1433.0000, -98.372
1433.1000, -88.487
1433.2000, -84.489
1433.3000,-210.000
1433.4000, -85.620
1433.5000, -84.370
1433.6000, -84.931
1433.7000,-210.000
1433.8000, -85.099
1433.9000, -89.390
1434.0000, -84.696
1434.1000,-210.000
1434.2000,-210.000
1434.3000, -88.578
1434.4000, -93.035
1434.5000, -82.632
1434.6000, -85.189
1434.7000,-210.000
1434.8000, -83.919
1434.9000, -81.367
1435.0000, -94.651
1435.1000, -88.909
1435.2000,-210.000
1435.3000,-210.000
1435.4000, -96.684
1435.5000, -85.766
1435.6000, -86.193
1435.7000, -86.339
1435.8000, -89.379
1435.9000,-210.000
1436.0000, -86.518
1436.1000, -87.695
1436.2000, -84.954
1436.3000, -81.801
1436.4000,-210.000
1436.5000, -80.798
1436.6000,-210.000
1436.7000, -88.958
1436.8000, -94.333
1436.9000,-210.000
1437.0000, -84.699
1437.1000, -84.208
1437.2000,-210.000
1437.3000, -81.989
1437.4000, -86.574
1437.5000,-210.000
1437.6000,-210.000
1437.7000,-210.000
1437.8000, -85.249
1437.9000, -88.042
1438.0000, -80.569
1438.1000,-210.000
1438.2000,-210.000
1438.3000, -79.706
1438.4000,-210.000
1438.5000,-210.000
1438.6000,-210.000
1438.7000,-210.000
1438.8000, -86.877
1438.9000, -92.353
1439.0000, -86.860
1439.1000,-210.000
1439.2000,-210.000
1439.3000, -82.033
1439.4000, -82.753
1439.5000, -87.662
1439.6000,-210.000
1439.7000, -91.459
1439.8000, -84.386
1439.9000, -90.117
1440.0000,-210.000
1440.1000, -84.916
1440.2000, -89.890
1440.3000, -86.776
1440.4000,-210.000
1440.5000, -90.684
1440.6000, -93.190
1440.7000, -90.803
1440.8000, -93.336
1440.9000, -85.124
1441.0000, -86.286
1441.1000, -88.868
1441.2000, -83.899
1441.3000, -92.742
1441.4000, -87.613
1441.5000, -83.613
1441.6000,-210.000
1441.7000, -81.888
1441.8000,-210.000
1441.9000,-210.000
1442.0000, -85.024
1442.1000, -89.827
1442.2000, -90.311
1442.3000,-210.000
1442.4000, -85.598
1442.5000, -89.026
1442.6000, -87.104
1442.7000, -93.846
1442.8000,-210.000
1442.9000, -84.846
1443.0000,-210.000
1443.1000, -83.185
1443.2000, -83.861
1443.3000, -92.231
1443.4000, -84.511
1443.5000, -82.396
1443.6000, -86.282
1443.7000,-210.000
1443.8000, -84.489
1443.9000, -95.257
1444.0000, -86.761
1444.1000,-210.000
1444.2000,-210.000
1444.3000, -82.660
1444.4000, -90.992
1444.5000,-210.000
1444.6000, -92.988
1444.7000, -81.793
1444.8000,-210.000
1444.9000,-101.120
1445.0000, -89.753
1445.1000, -86.535
1445.2000, -86.966
1445.3000, -92.714
1445.4000, -87.263
1445.5000,-210.000
1445.6000,-210.000
1445.7000,-210.000
1445.8000, -84.985
1445.9000,-210.000
1446.0000, -95.445
1446.1000, -90.629
1446.2000, -84.819
1446.3000,-210.000
1446.4000, -89.046
1446.5000,-210.000
1446.6000, -89.106
1446.7000, -84.821
1446.8000,-210.000
1446.9000, -87.610
1447.0000, -82.086
1447.1000,-210.000
1447.2000, -88.627
1447.3000,-210.000
1447.4000, -83.816
1447.5000, -83.104
1447.6000, -88.556
1447.7000, -91.108
1447.8000, -83.855
1447.9000, -87.152
1448.0000, -85.988
1448.1000, -88.345
1448.2000,-210.000
1448.3000, -92.434
1448.4000, -84.113
1448.5000,-210.000
1448.6000, -82.715
1448.7000, -91.080
1448.8000,-210.000
1448.9000,-210.000
1449.0000, -89.522
1449.1000, -81.818
1449.2000,-210.000
1449.3000, -81.511
1449.4000, -81.004
1449.5000,-210.000
1449.6000,-210.000
1449.7000,-210.000
1449.8000, -88.361
1449.9000, -98.566
1450.0000, -90.075
1450.1000, -90.834
1450.2000,-210.000
1450.3000, -83.594
1450.4000, -90.518
1450.5000, -84.197
1450.6000,-210.000
1450.7000, -84.265
1450.8000, -88.387
1450.9000, -87.746
1451.0000, -86.037
1451.1000,-210.000
1451.2000, -86.802
1451.3000, -84.883
1451.4000, -84.515
1451.5000,-210.000
1451.6000,-120.549
1451.7000, -91.225
1451.8000, -80.962
1451.9000, -86.127
1452.0000,-210.000
1452.1000, -92.974
1452.2000, -88.579
1452.3000, -87.090
1452.4000, -85.054
1452.5000,-210.000
1452.6000, -84.777
1452.7000,-210.000
1452.8000, -85.304
1452.9000, -84.809
1453.0000,-210.000
1453.1000, -88.715
1453.2000,-210.000
1453.3000, -84.830
1453.4000, -84.583
1453.5000,-210.000
1453.6000, -88.423
1453.7000, -84.320
1453.8000, -87.168
1453.9000, -88.619
1454.0000,-210.000
1454.1000,-210.000
1454.2000, -83.916
1454.3000, -82.463
1454.4000, -83.243
1454.5000,-210.000
1454.6000,-210.000
1454.7000, -78.234
1454.8000,-210.000
1454.9000, -89.429
1455.0000, -82.791
1455.1000, -87.625
1455.2000, -84.422
1455.3000, -94.382
1455.4000, -83.896
1455.5000,-210.000
1455.6000,-210.000
1455.7000, -83.696
1455.8000,-210.000
1455.9000, -84.332
1456.0000, -90.685
1456.1000,-210.000
1456.2000, -85.431
1456.3000,-210.000
1456.4000, -89.921
1456.5000, -96.940
1456.6000,-210.000
1456.7000, -82.302
1456.8000,-210.000
1456.9000, -89.120
1457.0000, -88.668
1457.1000, -81.783
1457.2000,-105.656
1457.3000, -83.137
1457.4000,-210.000
1457.5000, -82.574
1457.6000, -89.253
1457.7000,-210.000
1457.8000, -84.622
1457.9000, -85.683
1458.0000,-210.000
1458.1000,-210.000
1458.2000, -86.396
1458.3000, -86.770
1458.4000, -93.209
1458.5000, -86.621
1458.6000, -85.434
1458.7000, -88.711
1458.8000, -92.998
1458.9000, -84.709
1459.0000,-210.000
1459.1000, -92.824
1459.2000, -87.230
1459.3000, -83.915
1459.4000,-210.000
1459.5000,-210.000
1459.6000, -84.196
1459.7000,-210.000
1459.8000, -86.638
1459.9000, -89.812
1460.0000,-210.000
1460.1000, -94.372
1460.2000,-210.000
1460.3000, -83.412
1460.4000, -83.166
1460.5000,-210.000
1460.6000,-210.000
1460.7000, -82.583
1460.8000,-210.000
1460.9000, -88.265
1461.0000,-210.000
1461.1000, -85.206
1461.2000, -91.977
1461.3000, -85.065
1461.4000, -89.851
1461.5000, -83.768
1461.6000, -90.997
1461.7000,-210.000
1461.8000, -84.382
1461.9000, -84.088
1462.0000,-210.000
1462.1000, -91.526
1462.2000, -89.153
1462.3000, -85.774
1462.4000, -82.682
1462.5000,-210.000
1462.6000,-101.861
1462.7000, -81.716
1462.8000,-210.000
1462.9000, -81.115
1463.0000, -85.211
1463.1000,-210.000
1463.2000,-210.000
1463.3000, -97.560
1463.4000, -80.439
1463.5000, -87.354
1463.6000, -85.456
1463.7000,-210.000
1463.8000,-210.000
1463.9000, -83.165
1464.0000,-210.000
1464.1000, -80.928
1464.2000, -82.551
1464.3000,-210.000
1464.4000, -86.465
1464.5000,-210.000
1464.6000, -80.938
1464.7000, -91.556
1464.8000,-210.000
1464.9000, -82.412
1465.0000,-210.000
1465.1000,-210.000
1465.2000,-210.000
1465.3000, -84.076
1465.4000, -88.053
1465.5000,-210.000
1465.6000, -83.531
1465.7000, -95.650
1465.8000, -86.433
1465.9000, -86.106
1466.0000, -87.795
1466.1000,-210.000
1466.2000, -88.062
1466.3000,-101.684
1466.4000, -84.950
1466.5000,-210.000
1466.6000, -85.447
1466.7000,-210.000
1466.8000, -85.231
1466.9000, -83.030
1467.0000,-210.000
1467.1000, -87.834
1467.2000, -89.115
1467.3000, -85.903
1467.4000, -86.524
1467.5000,-210.000
1467.6000, -90.128
1467.7000, -87.832
1467.8000, -86.417
1467.9000, -83.760
1468.0000,-210.000
1468.1000, -82.279
1468.2000, -92.757
1468.3000,-210.000
1468.4000, -85.132
1468.5000,-210.000
1468.6000, -83.742
1468.7000, -87.388
1468.8000, -93.425
1468.9000, -84.648
1469.0000, -87.582
1469.1000, -88.987
1469.2000,-100.879
1469.3000, -85.695
1469.4000, -85.368
1469.5000,-210.000
1469.6000, -90.862
1469.7000, -85.539
1469.8000,-210.000
1469.9000, -89.786
1470.0000, -91.878
1470.1000, -88.389
1470.2000, -88.547
1470.3000, -87.982
1470.4000, -84.934
1470.5000,-210.000
1470.6000,-210.000
1470.7000, -87.251
1470.8000, -85.011
1470.9000, -84.915
1471.0000, -88.755
1471.1000,-210.000
1471.2000, -84.328
1471.3000, -85.306
1471.4000,-210.000
1471.5000, -89.379
1471.6000, -87.022
1471.7000, -83.900
1471.8000, -86.264
1471.9000,-210.000
1472.0000, -87.574
1472.1000, -84.511
1472.2000, -86.069
1472.3000, -86.740
1472.4000,-210.000
1472.5000,-210.000
1472.6000, -86.526
1472.7000, -82.043
1472.8000,-102.307
1472.9000, -84.294
1473.0000,-210.000
1473.1000, -88.384
1473.2000, -84.218
1473.3000, -91.494
1473.4000,-210.000
1473.5000, -85.521
1473.6000, -84.077
1473.7000, -84.498
1473.8000,-210.000
1473.9000, -94.046
1474.0000, -85.600
1474.1000, -84.840
1474.2000, -98.729
1474.3000,-210.000
1474.4000, -98.208
1474.5000, -86.533
1474.6000,-210.000
1474.7000, -85.889
1474.8000, -87.247
1474.9000, -97.006
1475.0000,-210.000
1475.1000,-210.000
1475.2000,-210.000
1475.3000, -83.480
1475.4000, -85.005
1475.5000, -87.130
1475.6000,-210.000
1475.7000,-210.000
1475.8000, -88.116
1475.9000, -82.147
1476.0000,-210.000
1476.1000,-210.000
1476.2000, -83.160
1476.3000, -87.416
1476.4000,-210.000
1476.5000, -85.199
1476.6000, -86.863
1476.7000, -88.589
1476.8000, -90.162
1476.9000, -94.889
1477.0000,-210.000
1477.1000, -84.837
1477.2000,-210.000
1477.3000,-210.000
1477.4000, -90.677
1477.5000,-210.000
1477.6000, -85.488
1477.7000,-210.000
1477.8000, -90.381
1477.9000,-210.000
1478.0000,-210.000
1478.1000, -87.630
1478.2000, -90.577
1478.3000, -86.552
1478.4000, -89.213
1478.5000, -96.231
1478.6000, -83.515
1478.7000,-210.000
1478.8000, -84.601
1478.9000, -84.517
1479.0000, -97.839
1479.1000,-210.000
1479.2000, -92.746
1479.3000, -84.180
1479.4000, -81.749
1479.5000,-210.000
1479.6000, -89.655
1479.7000, -88.140
1479.8000, -84.154
1479.9000,-210.000
1480.0000, -91.673
1480.1000, -90.560
1480.2000,-210.000
1480.3000, -85.262
1480.4000,-210.000
1480.5000, -81.765
1480.6000,-210.000
1480.7000, -85.867
1480.8000, -99.334
1480.9000,-210.000
1481.0000, -90.392
1481.1000, -87.014
1481.2000, -84.594
1481.3000, -88.827
1481.4000, -85.991
1481.5000,-210.000
1481.6000, -95.337
1481.7000,-210.000
1481.8000, -85.387
1481.9000, -91.677
1482.0000, -87.273
1482.1000, -89.153
1482.2000,-210.000
1482.3000, -85.935
1482.4000, -82.554
1482.5000,-210.000
1482.6000, -89.529
1482.7000,-210.000
1482.8000,-210.000
1482.9000, -88.790
1483.0000, -87.880
1483.1000, -88.639
1483.2000, -86.779
1483.3000, -84.433
1483.4000,-210.000
1483.5000, -87.258
1483.6000,-210.000
1483.7000, -86.895
1483.8000, -86.720
1483.9000, -85.025
1484.0000, -95.490
1484.1000,-210.000
1484.2000, -87.933
1484.3000,-210.000
1484.4000, -89.951
1484.5000, -88.974
1484.6000, -95.904
1484.7000, -83.113
1484.8000,-210.000
1484.9000, -86.062
1485.0000, -86.907
1485.1000, -84.384
1485.2000, -91.690
1485.3000, -83.433
1485.4000,-210.000
1485.5000, -83.314
1485.6000,-104.441
1485.7000,-210.000
1485.8000, -86.347
1485.9000, -87.653
1486.0000,-210.000
1486.1000, -92.710
1486.2000, -86.207
1486.3000, -96.545
1486.4000, -84.858
1486.5000,-210.000
1486.6000, -86.123
1486.7000, -83.948
1486.8000, -81.635
1486.9000,-210.000
1487.0000,-210.000
1487.1000, -86.465
1487.2000, -90.386
1487.3000, -93.181
1487.4000, -83.485
1487.5000,-210.000
1487.6000, -85.480
1487.7000,-210.000
1487.8000, -83.546
1487.9000, -89.555
1488.0000, -85.787
1488.1000, -88.536
1488.2000, -86.435
1488.3000, -84.556
1488.4000,-210.000
1488.5000, -89.699
1488.6000, -89.736
1488.7000, -83.204
1488.8000, -85.355
1488.9000, -90.731
1489.0000, -95.054
1489.1000, -86.665
1489.2000, -95.909
1489.3000, -86.507
1489.4000, -87.687
1489.5000, -87.776
1489.6000,-210.000
1489.7000,-210.000
1489.8000, -81.156
1489.9000, -89.682
1490.0000,-210.000
1490.1000,-210.000
1490.2000, -86.095
1490.3000, -90.038
1490.4000,-210.000
1490.5000, -87.640
1490.6000, -87.475
1490.7000, -84.710
1490.8000, -85.855
1490.9000, -86.350
1491.0000,-210.000
1491.1000, -95.299
1491.2000, -94.599
1491.3000,-210.000
1491.4000, -84.477
1491.5000, -88.076
1491.6000,-118.926
1491.7000, -87.578
1491.8000, -84.988
1491.9000, -86.791
1492.0000, -86.419
1492.1000, -88.209
1492.2000, -92.416
1492.3000, -95.285
1492.4000, -85.237
1492.5000, -84.552
1492.6000, -87.279
1492.7000, -89.133
1492.8000, -84.259
1492.9000, -86.808
1493.0000, -87.105
1493.1000,-210.000
1493.2000, -84.451
1493.3000,-210.000
1493.4000, -88.829
1493.5000, -83.934
1493.6000,-210.000
1493.7000,-210.000
1493.8000, -92.390
1493.9000, -92.385
1494.0000, -85.624
1494.1000, -88.346
1494.2000, -90.708
1494.3000,-210.000
1494.4000, -86.544
1494.5000, -96.648
1494.6000, -88.246
1494.7000, -83.494
1494.8000, -84.791
1494.9000, -93.798
1495.0000,-210.000
1495.1000, -84.473
1495.2000, -84.911
1495.3000, -98.147
1495.4000,-210.000
1495.5000, -85.160
1495.6000, -83.283
1495.7000,-210.000
1495.8000, -88.613
1495.9000, -90.034
1496.0000, -86.558
1496.1000,-210.000
1496.2000, -87.695
1496.3000, -84.433
1496.4000, -94.343
1496.5000, -95.347
1496.6000, -84.181
1496.7000, -90.957
1496.8000,-210.000
1496.9000, -89.097
1497.0000, -82.075
1497.1000, -87.846
1497.2000,-210.000
1497.3000,-210.000
1497.4000, -86.990
1497.5000, -85.158
1497.6000, -89.624
1497.7000, -85.124
1497.8000,-210.000
1497.9000, -82.871
1498.0000,-210.000
1498.1000, -83.555
1498.2000,-103.138
1498.3000, -85.700
1498.4000,-210.000
1498.5000, -85.332
1498.6000,-210.000
1498.7000,-210.000
1498.8000,-210.000
1498.9000, -86.851
1499.0000, -86.094
1499.1000, -86.942
1499.2000,-210.000
1499.3000, -83.001
1499.4000, -93.834
1499.5000, -88.369
1499.6000, -86.692
1499.7000,-210.000
1499.8000, -87.354
1499.9000, -92.210
1500.0000, -92.561
1500.1000,-210.000
1500.2000, -84.597
1500.3000, -86.265
1500.4000, -95.511
1500.5000, -89.927
1500.6000, -86.343
1500.7000, -91.103
1500.8000,-101.289
1500.9000, -85.019
1501.0000, -86.966
1501.1000,-210.000
1501.2000, -87.478
1501.3000, -89.603
1501.4000,-210.000
1501.5000, -85.504
1501.6000, -92.083
1501.7000,-210.000
1501.8000, -83.814
1501.9000,-210.000
1502.0000, -90.451
1502.1000, -87.334
1502.2000,-210.000
1502.3000, -86.908
1502.4000,-210.000
1502.5000,-210.000
1502.6000, -91.081
1502.7000, -86.114
1502.8000, -88.806
1502.9000, -83.751
1503.0000, -99.343
1503.1000, -89.818
1503.2000, -83.628
1503.3000,-210.000
1503.4000, -92.552
1503.5000, -87.447
1503.6000, -84.167
1503.7000, -86.671
1503.8000,-210.000
1503.9000,-105.993
1504.0000,-210.000
1504.1000, -91.945
1504.2000,-210.000
1504.3000,-210.000
1504.4000, -85.658
1504.5000, -98.590
1504.6000,-210.000
1504.7000,-210.000
1504.8000,-210.000
1504.9000,-210.000
1505.0000, -88.401
1505.1000, -91.956
1505.2000,-210.000
1505.3000, -95.451
1505.4000, -84.666
1505.5000, -86.854
1505.6000,-210.000
1505.7000, -83.809
1505.8000, -83.018
1505.9000,-210.000
1506.0000,-210.000
1506.1000, -81.867
1506.2000,-210.000
1506.3000,-210.000
1506.4000, -82.522
1506.5000,-210.000
1506.6000,-210.000
1506.7000, -95.155
1506.8000, -87.745
1506.9000,-210.000
1507.0000, -96.341
1507.1000, -88.177
1507.2000, -86.571
1507.3000, -89.262
1507.4000, -86.774
1507.5000, -81.170
1507.6000,-210.000
1507.7000, -97.163
1507.8000, -83.415
1507.9000, -93.614
1508.0000, -88.825
1508.1000,-210.000
1508.2000, -87.901
1508.3000, -88.372
1508.4000,-210.000
1508.5000, -85.940
1508.6000, -95.219
1508.7000, -83.022
1508.8000,-100.140
1508.9000,-210.000
1509.0000, -83.300
1509.1000, -94.490
1509.2000,-210.000
1509.3000, -87.868
1509.4000, -88.899
1509.5000, -99.907
1509.6000, -86.099
1509.7000, -92.866
1509.8000, -88.034
1509.9000, -86.074
1510.0000, -92.620
1510.1000, -83.408
1510.2000,-210.000
1510.3000, -94.648
1510.4000, -85.154
1510.5000,-210.000
1510.6000, -87.247
1510.7000, -94.630
1510.8000, -87.425
1510.9000, -84.668
1511.0000, -87.134
1511.1000, -85.426
1511.2000, -85.022
1511.3000,-210.000
1511.4000, -88.152
1511.5000, -94.179
1511.6000, -90.582
1511.7000, -84.605
1511.8000, -87.844
1511.9000, -85.554
1512.0000, -89.852
1512.1000, -86.248
1512.2000, -89.368
1512.3000, -82.176
1512.4000, -83.194
1512.5000,-210.000
1512.6000, -79.225
1512.7000,-210.000
1512.8000, -85.031
1512.9000, -82.168
1513.0000, -92.831
1513.1000, -84.722
1513.2000, -87.155
1513.3000, -81.423
1513.4000, -90.276
1513.5000, -93.533
1513.6000,-210.000
1513.7000, -87.741
1513.8000, -88.268
1513.9000,-210.000
1514.0000, -83.216
1514.1000, -85.023
1514.2000, -87.629
1514.3000,-210.000
1514.4000, -83.071
1514.5000, -85.811
1514.6000, -93.657
1514.7000, -86.180
1514.8000, -99.435
1514.9000, -90.398
1515.0000,-210.000
1515.1000, -88.721
1515.2000, -84.210
1515.3000,-210.000
1515.4000, -90.494
1515.5000, -84.184
1515.6000, -84.887
1515.7000, -85.918
1515.8000, -92.662
1515.9000, -86.484
1516.0000, -86.914
1516.1000, -88.198
1516.2000, -85.059
1516.3000,-210.000
1516.4000, -87.859
1516.5000, -84.689
1516.6000,-210.000
1516.7000, -84.819
1516.8000, -83.494
1516.9000,-210.000
1517.0000, -84.113
1517.1000, -84.938
1517.2000, -83.345
1517.3000,-210.000
1517.4000, -86.626
1517.5000, -84.496
1517.6000, -83.759
1517.7000,-210.000
1517.8000, -84.108
1517.9000, -87.798
1518.0000, -93.969
1518.1000, -88.542
1518.2000,-210.000
1518.3000, -80.385
1518.4000, -84.023
1518.5000,-210.000
1518.6000, -82.514
1518.7000,-210.000
1518.8000, -81.848
1518.9000, -82.671
1519.0000,-210.000
1519.1000,-210.000
1519.2000, -85.246
1519.3000, -83.960
1519.4000,-210.000
1519.5000, -86.738
1519.6000,-210.000
1519.7000,-210.000
1519.8000, -95.948
1519.9000, -94.088
1520.0000, -86.539
1520.1000, -84.173
1520.2000, -86.988
1520.3000, -88.817
1520.4000,-210.000
1520.5000, -90.995
1520.6000,-210.000
1520.7000,-210.000
1520.8000, -85.579
1520.9000,-210.000
1521.0000, -89.725
1521.1000, -80.427
1521.2000, -88.763
1521.3000,-210.000
1521.4000,-210.000
1521.5000, -87.272
1521.6000, -89.729
1521.7000,-210.000
1521.8000, -81.396
1521.9000,-210.000
1522.0000, -84.233
1522.1000,-210.000
1522.2000, -84.840
1522.3000,-210.000
1522.4000,-108.133
1522.5000, -82.400
1522.6000,-210.000
1522.7000, -86.075
1522.8000, -88.775
1522.9000,-210.000
1523.0000, -83.065
1523.1000,-210.000
1523.2000,-210.000
1523.3000, -84.616
1523.4000,-210.000
1523.5000, -83.592
1523.6000, -83.095
1523.7000, -90.500
1523.8000, -97.947
1523.9000, -83.137
1524.0000, -99.540
1524.1000,-210.000
1524.2000, -83.993
1524.3000, -84.805
1524.4000,-210.000
1524.5000, -91.391
1524.6000, -85.847
1524.7000, -85.370
1524.8000, -85.884
1524.9000, -83.957
1525.0000,-210.000
1525.1000, -82.081
1525.2000,-210.000
1525.3000, -84.597
1525.4000, -98.650
1525.5000, -86.144
1525.6000, -88.328
1525.7000,-210.000
1525.8000, -95.417
1525.9000, -84.466
1526.0000, -85.946
1526.1000, -87.146
1526.2000, -87.074
1526.3000, -90.211
1526.4000, -90.785
1526.5000,-210.000
1526.6000, -83.069
1526.7000,-210.000
1526.8000,-104.678
1526.9000, -84.643
1527.0000,-210.000
1527.1000, -82.027
1527.2000, -87.117
1527.3000, -84.381
1527.4000,-210.000
1527.5000, -79.289
1527.6000, -91.439
1527.7000, -89.144
1527.8000,-210.000
1527.9000, -84.244
1528.0000, -88.360
1528.1000, -86.223
1528.2000,-210.000
1528.3000, -86.409
1528.4000,-210.000
1528.5000, -86.391
1528.6000, -84.314
1528.7000, -90.149
1528.8000, -83.467
1528.9000,-210.000
1529.0000, -88.515
1529.1000,-210.000
1529.2000, -84.510
1529.3000, -87.542
1529.4000, -88.515
1529.5000,-210.000
1529.6000, -84.126
1529.7000, -81.669
1529.8000,-210.000
1529.9000, -81.710
1530.0000, -82.771
1530.1000, -87.976
1530.2000, -89.321
1530.3000, -90.769
1530.4000, -84.404
1530.5000, -98.579
1530.6000,-100.561
1530.7000, -86.855
1530.8000, -84.579
1530.9000, -87.116
1531.0000, -89.485
1531.1000, -93.482
1531.2000, -92.386
1531.3000, -85.011
1531.4000, -99.694
1531.5000,-210.000
1531.6000, -81.149
1531.7000,-210.000
1531.8000, -87.389
1531.9000, -83.655
1532.0000, -90.858
1532.1000,-210.000
1532.2000, -87.153
1532.3000, -84.690
1532.4000,-210.000
1532.5000, -81.295
1532.6000,-104.107
1532.7000, -93.600
1532.8000,-210.000
1532.9000, -83.094
1533.0000, -83.221
1533.1000,-210.000
1533.2000,-210.000
1533.3000, -86.786
1533.4000, -83.695
1533.5000, -90.779
1533.6000, -89.697
1533.7000,-210.000
1533.8000, -84.798
1533.9000,-210.000
1534.0000, -85.150
1534.1000, -88.515
1534.2000,-210.000
1534.3000, -85.775
1534.4000, -91.910
1534.5000, -86.008
1534.6000, -95.228
1534.7000, -86.152
1534.8000, -82.523
1534.9000,-210.000
1535.0000,-210.000
1535.1000, -88.915
1535.2000, -83.152
1535.3000,-210.000
1535.4000, -88.408
1535.5000, -86.530
1535.6000, -87.017
1535.7000, -87.618
1535.8000,-210.000
1535.9000, -96.028
1536.0000, -88.727
1536.1000,-210.000
1536.2000, -84.574
1536.3000, -85.244
1536.4000, -90.467
1536.5000,-210.000
1536.6000, -84.377
1536.7000, -84.781
1536.8000,-210.000
1536.9000, -83.126
1537.0000, -83.232
1537.1000, -86.293
1537.2000,-210.000
1537.3000, -82.152
1537.4000, -82.710
1537.5000,-210.000
1537.6000, -82.120
1537.7000, -89.432
1537.8000, -99.304
1537.9000, -88.589
1538.0000,-210.000
1538.1000, -90.121
1538.2000, -85.147
1538.3000,-210.000
1538.4000,-210.000
1538.5000, -89.739
1538.6000, -81.446
1538.7000,-210.000
1538.8000, -87.040
1538.9000, -85.687
1539.0000, -81.402
1539.1000,-210.000
1539.2000,-210.000
1539.3000, -89.642
1539.4000, -95.999
1539.5000, -87.500
1539.6000, -85.734
1539.7000, -86.372
1539.8000,-210.000
1539.9000, -88.152
1540.0000, -86.520
1540.1000, -82.646
1540.2000,-210.000
1540.3000,-210.000
1540.4000,-210.000
1540.5000, -86.109
1540.6000,-210.000
1540.7000, -84.875
1540.8000, -84.762
1540.9000, -87.137
1541.0000, -91.545
1541.1000,-210.000
1541.2000, -92.787
1541.3000,-210.000
1541.4000, -85.620
1541.5000, -87.022
1541.6000,-210.000
1541.7000, -86.382
1541.8000, -85.671
1541.9000, -82.279
1542.0000,-210.000
1542.1000, -89.016
1542.2000, -88.988
1542.3000,-210.000
1542.4000, -85.114
1542.5000,-210.000
1542.6000, -87.246
1542.7000, -91.195
1542.8000, -80.468
1542.9000,-210.000
1543.0000, -98.288
1543.1000, -88.354
1543.2000, -86.274
1543.3000, -85.405
1543.4000,-103.976
1543.5000,-210.000
1543.6000,-210.000
1543.7000,-210.000
1543.8000, -83.960
1543.9000, -83.734
1544.0000, -90.265
1544.1000, -95.391
1544.2000, -95.600
1544.3000, -86.320
1544.4000, -84.608
1544.5000, -86.774
1544.6000, -90.087
1544.7000, -85.710
1544.8000, -86.877
1544.9000, -89.771
1545.0000,-210.000
1545.1000, -85.480
1545.2000,-210.000
1545.3000, -88.556
1545.4000, -83.810
1545.5000, -84.404
1545.6000, -86.404
1545.7000, -90.475
1545.8000, -93.569
1545.9000,-100.561
1546.0000, -87.862
1546.1000, -83.136
1546.2000,-210.000
1546.3000, -86.243
1546.4000, -84.408
1546.5000, -98.183
1546.6000,-210.000
1546.7000,-210.000
1546.8000, -84.684
1546.9000, -88.164
1547.0000, -83.692
1547.1000, -98.437
1547.2000, -93.899
1547.3000, -90.962
1547.4000, -85.947
1547.5000, -86.662
1547.6000, -87.267
1547.7000,-210.000
1547.8000, -86.376
1547.9000, -81.607
1548.0000,-210.000
1548.1000, -84.116
1548.2000,-102.843
1548.3000, -85.994
1548.4000, -87.775
1548.5000, -91.034
1548.6000, -89.338
1548.7000, -87.095
1548.8000,-210.000
1548.9000, -83.151
1549.0000, -85.372
1549.1000, -84.262
1549.2000, -96.686
1549.3000, -86.474
1549.4000, -84.015
1549.5000,-210.000
1549.6000, -91.021
1549.7000, -85.921
1549.8000, -87.004
1549.9000,-210.000
1550.0000, -85.397
1550.1000, -85.862
1550.2000, -86.620
1550.3000,-210.000
1550.4000, -92.608
1550.5000, -84.969
1550.6000,-102.018
1550.7000, -86.237
1550.8000, -92.884
1550.9000, -86.728
1551.0000, -86.679
1551.1000, -86.257
1551.2000, -86.727
1551.3000, -94.747
1551.4000, -87.076
1551.5000, -89.495
1551.6000, -86.012
1551.7000, -86.534
1551.8000, -84.758
1551.9000,-210.000
1552.0000, -89.147
1552.1000, -84.061
1552.2000,-210.000
1552.3000, -83.914
1552.4000, -83.793
1552.5000, -86.263
1552.6000, -85.972
1552.7000, -88.747
1552.8000, -89.483
1552.9000,-210.000
1553.0000, -93.500
1553.1000, -93.537
1553.2000, -87.560
1553.3000, -85.757
1553.4000,-210.000
1553.5000, -83.082
1553.6000, -89.896
1553.7000,-210.000
1553.8000, -82.738
1553.9000,-210.000
1554.0000, -86.838
1554.1000, -86.424
1554.2000, -91.111
1554.3000, -84.216
1554.4000, -94.811
1554.5000, -85.806
1554.6000, -86.361
1554.7000, -99.564
1554.8000, -91.906
1554.9000,-210.000
1555.0000, -85.849
1555.1000,-210.000
1555.2000, -98.019
1555.3000, -85.766
1555.4000, -93.580
1555.5000, -97.532
1555.6000, -86.614
1555.7000, -85.497
1555.8000,-210.000
1555.9000, -87.761
1556.0000, -90.501
1556.1000, -86.779
1556.2000, -84.143
1556.3000,-210.000
1556.4000, -84.242
1556.5000, -87.745
1556.6000, -85.967
1556.7000,-210.000
1556.8000, -83.778
1556.9000, -89.145
1557.0000, -86.383
1557.1000, -85.985
1557.2000, -86.503
1557.3000, -85.745
1557.4000, -87.747
1557.5000, -88.494
1557.6000, -85.004
1557.7000, -89.444
1557.8000, -87.591
1557.9000, -82.730
1558.0000, -87.017
1558.1000, -86.249
1558.2000, -88.489
1558.3000, -88.958
1558.4000, -84.790
1558.5000,-210.000
1558.6000, -84.579
1558.7000, -93.820
1558.8000, -86.679
1558.9000, -87.613
1559.0000, -92.305
1559.1000, -87.090
1559.2000, -87.300
1559.3000, -87.660
1559.4000,-210.000
1559.5000, -82.163
1559.6000,-210.000
1559.7000,-210.000
1559.8000,-210.000
1559.9000, -88.775
1560.0000, -85.984
1560.1000,-210.000
1560.2000, -97.278
1560.3000, -84.951
1560.4000,-210.000
1560.5000, -86.703
1560.6000, -90.035
1560.7000, -87.018
1560.8000,-210.000
1560.9000, -86.653
1561.0000, -82.635
1561.1000, -91.223
1561.2000,-210.000
1561.3000,-210.000
1561.4000, -87.115
1561.5000, -90.018
1561.6000, -88.054
1561.7000, -96.455
1561.8000, -86.204
1561.9000, -89.820
1562.0000,-210.000
1562.1000, -83.435
1562.2000,-210.000
1562.3000, -83.553
1562.4000,-210.000
1562.5000,-210.000
1562.6000, -86.979
1562.7000,-210.000
1562.8000,-210.000
1562.9000, -89.307
1563.0000,-102.198
1563.1000, -87.510
1563.2000,-210.000
1563.3000, -91.910
1563.4000, -84.891
1563.5000,-210.000
1563.6000, -95.987
1563.7000, -92.768
1563.8000, -91.039
1563.9000, -92.556
1564.0000, -87.078
1564.1000, -82.208
1564.2000,-210.000
1564.3000, -82.231
1564.4000, -86.633
1564.5000, -90.016
1564.6000, -88.865
1564.7000, -85.277
1564.8000, -89.842
1564.9000,-210.000
1565.0000, -92.005
1565.1000,-210.000
1565.2000, -83.674
1565.3000, -88.404
1565.4000, -97.309
1565.5000, -82.067
1565.6000, -88.580
1565.7000, -97.038
1565.8000, -84.040
1565.9000, -90.846
1566.0000,-210.000
1566.1000, -84.647
1566.2000,-210.000
1566.3000, -89.595
1566.4000, -84.665
1566.5000, -82.971
1566.6000,-210.000
1566.7000, -90.648
1566.8000, -86.117
1566.9000, -90.175
1567.0000, -85.824
1567.1000,-210.000
1567.2000, -85.542
1567.3000, -87.730
1567.4000, -98.531
1567.5000, -89.344
1567.6000,-210.000
1567.7000, -90.043
1567.8000, -91.002
1567.9000, -86.106
1568.0000,-210.000
1568.1000, -90.917
1568.2000, -84.006
1568.3000, -83.713
1568.4000,-210.000
1568.5000, -88.513
1568.6000,-210.000
1568.7000,-210.000
1568.8000, -84.971
1568.9000, -84.740
1569.0000,-100.437
1569.1000,-210.000
1569.2000, -84.068
1569.3000, -88.331
1569.4000,-210.000
1569.5000, -86.192
1569.6000, -82.764
1569.7000, -86.243
1569.8000, -88.488
1569.9000,-210.000
1570.0000, -85.438
1570.1000, -91.419
1570.2000, -91.851
1570.3000, -88.033
1570.4000, -91.201
1570.5000, -88.832
1570.6000, -80.855
1570.7000, -82.143
1570.8000,-210.000
1570.9000, -86.527
1571.0000, -87.861
1571.1000,-210.000
1571.2000, -83.906
1571.3000, -83.802
1571.4000,-210.000
1571.5000, -85.889
1571.6000, -87.168
1571.7000,-210.000
1571.8000, -86.343
1571.9000, -90.640
1572.0000, -85.167
1572.1000, -85.717
1572.2000, -84.523
1572.3000, -82.007
1572.4000,-210.000
1572.5000, -95.070
1572.6000, -85.519
1572.7000, -87.226
1572.8000, -90.832
1572.9000,-210.000
1573.0000, -87.344
1573.1000, -86.994
1573.2000, -98.477
1573.3000, -86.554
1573.4000, -86.177
1573.5000, -88.372
1573.6000,-210.000
1573.7000,-210.000
1573.8000, -86.906
1573.9000, -94.884
1574.0000, -89.281
1574.1000, -86.816
1574.2000, -83.410
1574.3000, -91.291
1574.4000,-210.000
1574.5000, -82.377
1574.6000, -91.445
1574.7000,-210.000
1574.8000, -87.645
1574.9000,-210.000
1575.0000,-210.000
1575.1000,-210.000
1575.2000, -90.150
1575.3000, -84.304
1575.4000, -88.256
1575.5000,-210.000
1575.6000, -86.176
1575.7000, -92.359
1575.8000, -85.831
1575.9000, -85.590
1576.0000, -88.007
1576.1000,-109.763
1576.2000, -88.586
1576.3000, -91.033
1576.4000, -92.704
1576.5000, -88.620
1576.6000, -93.775
1576.7000, -82.525
1576.8000,-210.000
1576.9000, -83.762
1577.0000, -84.982
1577.1000, -82.757
1577.2000, -84.437
1577.3000,-210.000
1577.4000, -82.483
1577.5000,-210.000
1577.6000,-210.000
1577.7000, -86.184
1577.8000,-210.000
1577.9000, -88.165
1578.0000, -88.582
1578.1000, -91.695
1578.2000, -88.221
1578.3000,-210.000
1578.4000, -84.337
1578.5000,-210.000
1578.6000, -84.402
1578.7000,-210.000
1578.8000, -88.570
1578.9000, -83.854
1579.0000, -87.571
1579.1000,-108.714
1579.2000,-106.488
1579.3000, -88.571
1579.4000,-103.009
1579.5000, -89.947
1579.6000, -84.828
1579.7000, -86.631
1579.8000, -90.744
1579.9000, -85.786
1580.0000, -79.859
1580.1000,-210.000
1580.2000,-210.000
1580.3000, -86.450
1580.4000, -90.203
1580.5000, -87.817
1580.6000, -93.884
1580.7000, -82.223
1580.8000, -90.140
1580.9000, -87.379
1581.0000, -93.912
1581.1000,-210.000
1581.2000, -87.377
1581.3000, -85.493
1581.4000, -86.253
1581.5000, -98.391
1581.6000, -85.441
1581.7000,-210.000
1581.8000,-210.000
1581.9000, -86.212
1582.0000, -85.676
1582.1000,-210.000
1582.2000, -86.112
1582.3000, -82.083
1582.4000,-210.000
1582.5000, -94.001
1582.6000, -85.127
1582.7000, -84.557
1582.8000, -95.200
1582.9000, -84.570
1583.0000, -89.751
1583.1000, -89.300
1583.2000, -87.035
1583.3000, -86.149
1583.4000, -88.069
1583.5000, -84.449
1583.6000, -82.129
1583.7000,-210.000
1583.8000, -86.004
1583.9000,-210.000
1584.0000, -84.960
1584.1000, -84.877
1584.2000,-210.000
1584.3000, -89.276
1584.4000, -82.058
1584.5000,-210.000
1584.6000, -97.550
1584.7000, -84.559
1584.8000,-210.000
1584.9000, -83.975
1585.0000,-100.221
1585.1000,-210.000
1585.2000, -84.371
1585.3000, -99.071
1585.4000,-210.000
1585.5000,-210.000
1585.6000, -85.360
1585.7000, -83.888
1585.8000, -91.262
1585.9000,-210.000
1586.0000, -82.665
1586.1000,-210.000
1586.2000, -86.020
1586.3000, -84.986
1586.4000, -87.880
1586.5000, -98.290
1586.6000,-210.000
1586.7000, -94.861
1586.8000, -88.709
1586.9000, -88.313
1587.0000,-210.000
1587.1000, -89.774
1587.2000, -84.154
1587.3000, -91.999
1587.4000,-210.000
1587.5000, -87.131
1587.6000, -85.683
1587.7000, -84.385
1587.8000,-210.000
1587.9000, -89.364
1588.0000, -83.629
1588.1000, -83.639
1588.2000, -88.028
1588.3000, -90.053
1588.4000, -98.108
1588.5000, -86.699
1588.6000, -83.345
1588.7000, -84.497
1588.8000, -87.418
1588.9000,-210.000
1589.0000, -90.354
1589.1000, -85.094
1589.2000, -84.272
1589.3000, -81.160
1589.4000,-210.000
1589.5000, -85.427
1589.6000,-210.000
1589.7000, -88.806
1589.8000, -84.660
1589.9000, -89.423
1590.0000, -87.338
1590.1000, -87.161
1590.2000,-210.000
1590.3000, -86.175
1590.4000, -84.101
1590.5000, -92.097
1590.6000, -87.088
1590.7000,-210.000
1590.8000,-210.000
1590.9000, -85.047
1591.0000, -84.179
1591.1000,-210.000
1591.2000, -82.921
1591.3000,-210.000
1591.4000, -88.036
1591.5000, -89.422
1591.6000, -85.305
1591.7000,-210.000
1591.8000,-210.000
1591.9000, -82.748
1592.0000,-210.000
1592.1000, -83.438
1592.2000, -86.069
1592.3000,-105.261
1592.4000,-210.000
1592.5000, -83.875
1592.6000,-210.000
1592.7000, -83.940
1592.8000, -88.277
1592.9000, -82.158
1593.0000, -85.190
1593.1000,-210.000
1593.2000,-210.000
1593.3000, -82.732
1593.4000, -89.644
1593.5000, -82.408
1593.6000,-210.000
1593.7000,-210.000
1593.8000, -83.910
1593.9000, -85.740
1594.0000,-210.000
1594.1000, -86.562
1594.2000,-210.000
1594.3000, -85.773
1594.4000, -99.830
1594.5000, -90.349
1594.6000, -86.191
1594.7000,-210.000
1594.8000, -86.277
1594.9000, -88.422
1595.0000, -87.751
1595.1000, -87.726
1595.2000, -86.735
1595.3000, -97.669
1595.4000, -85.662
1595.5000, -83.544
1595.6000, -88.077
1595.7000, -88.797
1595.8000, -87.531
1595.9000, -84.706
1596.0000, -84.581
1596.1000, -88.033
1596.2000,-210.000
1596.3000, -94.467
1596.4000,-210.000
1596.5000, -83.772
1596.6000, -91.577
1596.7000,-210.000
1596.8000, -93.787
1596.9000, -92.174
1597.0000, -91.052
1597.1000, -83.491
1597.2000, -94.364
1597.3000, -98.153
1597.4000, -88.078
1597.5000, -82.405
1597.6000,-210.000
1597.7000, -84.522
1597.8000, -87.114
1597.9000,-210.000
1598.0000, -80.728
1598.1000,-210.000
1598.2000,-210.000
1598.3000, -86.027
1598.4000,-210.000
1598.5000, -85.913
1598.6000, -85.796
1598.7000,-210.000
1598.8000,-100.547
1598.9000, -81.724
1599.0000,-210.000
1599.1000, -84.425
1599.2000, -82.402
1599.3000, -87.089
1599.4000, -87.736
1599.5000, -85.992
1599.6000,-100.900
1599.7000, -84.434
1599.8000, -91.573
1599.9000,-210.000
1600.0000, -84.613
1600.1000, -84.266
1600.2000, -83.628
1600.3000,-210.000
1600.4000, -82.847
1600.5000, -83.977
1600.6000, -91.487
1600.7000, -83.021
1600.8000,-210.000
1600.9000, -86.120
1601.0000, -83.416
1601.1000,-210.000
1601.2000, -78.113
1601.3000,-210.000
1601.4000, -82.812
1601.5000,-210.000
1601.6000, -83.539
1601.7000, -86.025
1601.8000, -94.025
1601.9000, -86.445
1602.0000, -87.353
1602.1000,-210.000
1602.2000, -87.847
1602.3000, -87.587
1602.4000, -81.754
1602.5000,-210.000
1602.6000, -84.671
1602.7000, -85.637
1602.8000, -89.004
1602.9000,-210.000
1603.0000, -86.102
1603.1000, -83.074
1603.2000,-210.000
1603.3000, -88.442
1603.4000, -84.989
1603.5000, -84.892
1603.6000,-210.000
1603.7000, -89.928
1603.8000, -89.439
1603.9000, -82.846
1604.0000, -93.815
1604.1000,-210.000
1604.2000, -83.788
1604.3000, -85.470
1604.4000, -86.541
1604.5000, -83.066
1604.6000, -90.057
1604.7000, -88.535
1604.8000, -85.467
1604.9000, -84.835
1605.0000,-210.000
1605.1000, -79.370
1605.2000, -87.524
1605.3000, -95.147
1605.4000, -86.780
1605.5000, -83.927
1605.6000, -84.917
1605.7000, -91.615
1605.8000, -90.026
1605.9000, -85.359
1606.0000, -82.508
1606.1000,-210.000
1606.2000, -80.469
1606.3000, -91.733
1606.4000, -89.969
1606.5000, -83.318
1606.6000, -86.470
1606.7000, -83.974
1606.8000, -88.597
1606.9000,-210.000
1607.0000, -87.475
1607.1000, -87.108
1607.2000, -84.676
1607.3000, -82.300
1607.4000, -89.328
1607.5000, -88.828
1607.6000, -85.304
1607.7000, -84.074
1607.8000, -92.806
1607.9000,-210.000
1608.0000, -83.356
1608.1000, -81.637
1608.2000, -86.753
1608.3000,-210.000
1608.4000, -89.998
1608.5000, -81.951
1608.6000, -83.786
1608.7000, -83.859
1608.8000,-210.000
1608.9000, -83.802
1609.0000,-210.000
1609.1000, -79.910
1609.2000,-210.000
1609.3000, -87.172
1609.4000, -80.580
1609.5000,-210.000
1609.6000, -83.545
1609.7000, -86.144
1609.8000, -84.582
1609.9000, -82.783
1610.0000,-210.000
1610.1000, -78.659
1610.2000,-210.000
1610.3000, -82.585
1610.4000,-210.000
1610.5000, -80.176
1610.6000,-210.000
1610.7000,-210.000
1610.8000, -82.229
1610.9000, -81.576
1611.0000, -82.768
1611.1000,-210.000
1611.2000, -86.058
1611.3000,-210.000
1611.4000, -79.801
1611.5000, -83.345
1611.6000,-210.000
1611.7000,-210.000
1611.8000, -85.996
1611.9000, -82.852
1612.0000,-210.000
1612.1000,-210.000
1612.2000, -87.135
1612.3000, -84.381
1612.4000, -88.740
1612.5000,-210.000
1612.6000, -84.481
1612.7000,-210.000
1612.8000, -84.929
1612.9000, -84.612
1613.0000, -87.239
1613.1000,-210.000
1613.2000, -83.089
1613.3000, -82.496
1613.4000,-210.000
1613.5000,-210.000
1613.6000, -83.982
1613.7000,-210.000
1613.8000, -85.794
1613.9000, -85.650
1614.0000, -88.078
1614.1000, -81.213
1614.2000,-210.000
1614.3000, -99.079
1614.4000, -81.362
1614.5000, -92.428
1614.6000, -93.445
1614.7000,-210.000
1614.8000, -84.222
1614.9000, -87.302
1615.0000, -87.956
1615.1000, -90.644
1615.2000, -90.169
1615.3000, -89.893
1615.4000, -88.488
1615.5000, -83.246
1615.6000, -82.709
1615.7000, -90.819
1615.8000, -86.480
1615.9000, -83.433
1616.0000, -84.553
1616.1000, -89.716
1616.2000, -82.888
1616.3000, -85.456
1616.4000, -85.642
1616.5000, -81.700
1616.6000,-210.000
1616.7000, -96.243
1616.8000, -80.516
1616.9000, -82.427
1617.0000, -88.238
1617.1000, -82.209
1617.2000, -82.297
1617.3000, -84.587
1617.4000, -82.429
1617.5000, -84.019
1617.6000, -81.743
1617.7000, -82.601
1617.8000, -79.498
1617.9000, -83.604
1618.0000, -82.932
1618.1000, -79.664
1618.2000, -80.891
1618.3000, -82.191
1618.4000, -77.816
1618.5000, -79.230
1618.6000, -82.912
1618.7000, -79.407
1618.8000, -80.002
1618.9000, -82.547
1619.0000, -78.711
1619.1000, -83.686
1619.2000, -80.571
1619.3000, -78.611
1619.4000, -79.953
1619.5000, -79.343
1619.6000, -80.604
1619.7000, -79.129
1619.8000, -79.040
1619.9000, -79.119
1620.0000, -86.795
1620.1000, -77.735
1620.2000, -95.248
1620.3000, -82.071
1620.4000,-210.000
1620.5000, -87.177
1620.6000, -84.110
1620.7000, -86.383
1620.8000, -83.843
1620.9000, -86.980
1621.0000, -85.316
1621.1000, -86.157
1621.2000,-210.000
1621.3000,-210.000
1621.4000, -81.303
1621.5000, -85.599
1621.6000,-210.000
1621.7000, -82.402
1621.8000, -82.316
1621.9000, -85.862
1622.0000, -88.428
1622.1000, -81.898
1622.2000,-210.000
1622.3000, -79.056
1622.4000,-210.000
1622.5000, -82.948
1622.6000,-210.000
1622.7000,-210.000
1622.8000, -78.775
1622.9000,-210.000
1623.0000, -82.128
1623.1000,-210.000
1623.2000, -78.182
1623.3000, -88.010
1623.4000,-210.000
1623.5000, -82.969
1623.6000, -83.090
1623.7000,-210.000
1623.8000,-210.000
1623.9000, -92.485
1624.0000, -80.387
1624.1000, -92.870
1624.2000, -81.247
1624.3000,-210.000
1624.4000, -83.637
1624.5000, -85.825
1624.6000, -84.064
1624.7000, -85.057
1624.8000,-210.000
1624.9000, -84.084
1625.0000,-210.000
1625.1000, -83.734
1625.2000,-210.000
1625.3000, -78.798
1625.4000,-210.000
1625.5000, -87.877
1625.6000,-210.000
1625.7000, -81.118
1625.8000,-210.000
1625.9000, -77.557
1626.0000,-210.000
1626.1000, -83.354
1626.2000, -82.707
1626.3000,-210.000
1626.4000, -80.038
1626.5000,-210.000
1626.6000,-210.000
1626.7000, -82.260
1626.8000, -79.839
1626.9000,-210.000
1627.0000, -95.326
1627.1000, -83.243
1627.2000,-210.000
1627.3000, -80.293
1627.4000, -89.938
1627.5000,-210.000
1627.6000, -86.072
1627.7000,-210.000
1627.8000, -79.458
1627.9000,-210.000
1628.0000, -95.159
1628.1000, -81.177
1628.2000, -82.377
1628.3000,-210.000
1628.4000, -85.266
1628.5000, -84.067
1628.6000, -88.474
1628.7000, -83.911
1628.8000, -80.998
1628.9000, -88.192
1629.0000, -96.564
1629.1000,-210.000
1629.2000, -86.808
1629.3000, -88.745
1629.4000, -88.309
1629.5000, -87.562
1629.6000, -87.455
1629.7000, -83.358
1629.8000, -85.653
1629.9000, -94.632
1630.0000,-210.000
1630.1000, -81.191
1630.2000, -83.434
1630.3000, -83.862
1630.4000,-210.000
1630.5000, -84.576
1630.6000, -89.550
1630.7000, -86.945
1630.8000,-210.000
1630.9000,-210.000
1631.0000, -86.324
1631.1000, -85.216
1631.2000, -94.282
1631.3000, -93.544
1631.4000, -84.451
1631.5000, -86.012
1631.6000, -87.284
1631.7000, -87.456
1631.8000, -95.948
1631.9000, -89.805
1632.0000, -86.631
1632.1000, -85.462
1632.2000, -90.821
1632.3000,-210.000
1632.4000, -83.546
1632.5000,-210.000
1632.6000, -82.970
1632.7000, -84.391
1632.8000, -90.821
1632.9000,-210.000
1633.0000, -86.240
1633.1000, -82.345
1633.2000, -82.264
1633.3000,-210.000
1633.4000, -85.534
1633.5000, -85.083
1633.6000, -89.835
1633.7000, -81.838
1633.8000, -82.674
1633.9000, -83.970
1634.0000,-210.000
1634.1000, -79.732
1634.2000, -80.455
1634.3000, -83.343
1634.4000,-210.000
1634.5000, -79.134
1634.6000, -90.924
1634.7000, -88.138
1634.8000, -85.058
1634.9000,-210.000
1635.0000, -86.945
1635.1000, -80.839
1635.2000,-210.000
1635.3000, -95.325
1635.4000, -87.852
1635.5000, -92.720
1635.6000, -81.722
1635.7000, -84.787
1635.8000,-210.000
1635.9000,-210.000
1636.0000, -93.999
1636.1000, -80.830
1636.2000, -82.913
1636.3000, -84.125
1636.4000,-210.000
1636.5000, -87.648
1636.6000, -87.708
1636.7000, -86.638
1636.8000, -83.188
1636.9000, -78.901
1637.0000, -90.105
1637.1000, -81.469
1637.2000,-210.000
1637.3000,-210.000
1637.4000,-210.000
1637.5000, -80.216
1637.6000,-210.000
1637.7000, -84.329
1637.8000, -82.472
1637.9000,-210.000
1638.0000,-210.000
1638.1000, -81.653
1638.2000, -78.669
1638.3000, -80.845
1638.4000,-210.000
1638.5000, -85.515
1638.6000, -88.803
1638.7000, -88.620
1638.8000, -80.365
1638.9000,-210.000
1639.0000, -87.202
1639.1000, -79.959
1639.2000,-210.000
1639.3000, -80.067
1639.4000, -79.010
1639.5000,-210.000
1639.6000, -77.592
1639.7000,-210.000
1639.8000, -88.330
1639.9000, -86.781
1640.0000, -82.578
1640.1000, -81.577
1640.2000, -81.171
1640.3000, -81.220
1640.4000, -79.447
1640.5000,-210.000
1640.6000, -77.067
1640.7000,-210.000
1640.8000, -89.147
1640.9000,-210.000
1641.0000,-210.000
1641.1000,-210.000
1641.2000, -81.785
1641.3000, -80.534
1641.4000,-210.000
1641.5000, -80.125
1641.6000, -80.551
1641.7000,-210.000
1641.8000, -78.030
1641.9000, -82.339
1642.0000, -76.956
1642.1000, -89.502
1642.2000, -84.225
1642.3000,-210.000
1642.4000, -81.256
1642.5000, -88.062
1642.6000,-210.000
1642.7000, -85.317
1642.8000,-210.000
1642.9000, -83.326
1643.0000, -83.408
1643.1000, -81.728
1643.2000, -87.008
1643.3000, -82.731
1643.4000, -80.692
1643.5000, -78.869
1643.6000, -80.108
1643.7000,-210.000
1643.8000, -82.886
1643.9000, -79.106
1644.0000,-210.000
1644.1000, -76.032
1644.2000,-210.000
1644.3000,-210.000
1644.4000, -81.988
1644.5000, -79.022
1644.6000, -86.452
1644.7000,-210.000
1644.8000, -82.652
1644.9000, -80.480
1645.0000, -81.494
1645.1000, -87.562
1645.2000, -85.466
1645.3000,-210.000
1645.4000, -82.454
1645.5000, -80.090
1645.6000,-210.000
1645.7000,-210.000
1645.8000, -80.008
1645.9000, -78.610
1646.0000,-210.000
1646.1000, -86.014
1646.2000, -78.915
1646.3000, -77.019
1646.4000, -79.534
1646.5000,-210.000
1646.6000, -78.000
1646.7000, -82.487
1646.8000,-210.000
1646.9000, -78.671
1647.0000, -78.298
1647.1000,-210.000
1647.2000, -75.913
1647.3000, -87.534
1647.4000,-210.000
1647.5000, -82.473
1647.6000,-210.000
1647.7000, -77.504
1647.8000,-210.000
1647.9000,-210.000
1648.0000, -76.804
1648.1000,-210.000
1648.2000, -94.815
1648.3000, -81.565
1648.4000, -76.666
1648.5000,-210.000
1648.6000, -78.705
1648.7000, -76.578
1648.8000,-210.000
1648.9000,-210.000
1649.0000, -78.365
1649.1000, -76.635
1649.2000,-210.000
1649.3000,-210.000
1649.4000, -74.130
1649.5000, -82.878
1649.6000,-210.000
1649.7000,-210.000
1649.8000,-210.000
1649.9000, -83.394
1650.0000,-210.000
1650.1000,-210.000
1650.2000,-210.000
1650.3000, -79.514
1650.4000, -92.094
1650.5000, -79.347
1650.6000, -77.985
1650.7000, -96.909
1650.8000, -82.246
1650.9000, -77.775
1651.0000, -80.260
1651.1000,-210.000
1651.2000, -85.259
1651.3000,-210.000
1651.4000, -79.448
1651.5000, -79.958
1651.6000,-210.000
1651.7000, -75.955
1651.8000,-210.000
1651.9000, -80.575
1652.0000,-210.000
1652.1000,-210.000
1652.2000, -77.988
1652.3000, -82.220
1652.4000,-210.000
1652.5000,-210.000
1652.6000, -76.074
1652.7000,-210.000
1652.8000, -79.810
1652.9000, -80.272
1653.0000,-210.000
1653.1000, -83.757
1653.2000, -87.786
1653.3000,-210.000
1653.4000, -89.478
1653.5000, -77.579
1653.6000, -80.249
1653.7000,-210.000
1653.8000, -94.103
1653.9000, -76.943
1654.0000, -80.454
1654.1000,-210.000
1654.2000,-210.000
1654.3000, -77.699
1654.4000,-210.000
1654.5000, -77.962
1654.6000, -78.565
1654.7000, -84.184
1654.8000,-210.000
1654.9000, -75.915
1655.0000, -82.090
1655.1000, -75.584
1655.2000,-210.000
1655.3000, -75.398
1655.4000, -80.044
1655.5000, -79.006
1655.6000, -84.990
1655.7000,-210.000
1655.8000, -75.807
1655.9000,-210.000
1656.0000, -76.586
1656.1000, -83.148
1656.2000, -75.266
1656.3000, -84.995
1656.4000, -77.053
1656.5000, -81.531
1656.6000, -83.903
1656.7000,-210.000
1656.8000, -76.491
1656.9000,-210.000
1657.0000, -76.917
1657.1000,-210.000
1657.2000, -85.780
1657.3000, -78.707
1657.4000, -81.799
1657.5000,-210.000
1657.6000, -80.244
1657.7000, -78.128
1657.8000, -77.431
1657.9000,-210.000
1658.0000, -72.959
1658.1000, -86.882
1658.2000, -77.117
1658.3000, -80.741
1658.4000, -78.870
1658.5000, -76.527
1658.6000,-210.000
1658.7000, -74.821
1658.8000, -76.758
1658.9000,-210.000
1659.0000, -78.396
1659.1000, -74.381
1659.2000,-210.000
1659.3000, -84.605
1659.4000, -76.194
1659.5000, -90.509
1659.6000, -71.105
1659.7000, -78.257
1659.8000,-210.000
1659.9000,-210.000
1660.0000, -75.226
1660.1000,-210.000
1660.2000, -84.258
1660.3000, -72.577
1660.4000,-210.000
1660.5000, -78.080
1660.6000, -75.742
1660.7000, -77.406
1660.8000, -78.048
1660.9000, -75.218
1661.0000, -74.259
1661.1000,-210.000
1661.2000,-210.000
1661.3000, -77.873
1661.4000, -84.819
1661.5000,-210.000
1661.6000, -73.680
1661.7000,-210.000
1661.8000, -80.130
1661.9000, -76.064
1662.0000,-210.000
1662.1000, -80.773
1662.2000, -73.824
1662.3000, -76.786
1662.4000,-210.000
1662.5000, -73.522
1662.6000, -73.084
1662.7000,-210.000
1662.8000, -75.018
1662.9000,-210.000
1663.0000, -77.625
1663.1000, -86.251
1663.2000, -76.163
1663.3000,-210.000
1663.4000, -74.183
1663.5000,-210.000
1663.6000, -83.371
1663.7000,-210.000
1663.8000, -77.168
1663.9000, -83.619
1664.0000, -75.087
1664.1000, -73.201
1664.2000,-210.000
1664.3000, -84.425
1664.4000, -73.191
1664.5000, -73.010
1664.6000, -82.091
1664.7000,-210.000
1664.8000, -70.960
1664.9000, -78.164
1665.0000, -83.016
1665.1000, -71.048
1665.2000,-210.000
1665.3000,-210.000
1665.4000, -71.813
1665.5000, -83.217
1665.6000, -74.095
1665.7000, -73.727
1665.8000,-210.000
1665.9000, -76.053
1666.0000, -77.924
1666.1000, -71.779
1666.2000, -77.255
1666.3000, -79.336
1666.4000, -80.461
1666.5000,-210.000
1666.6000,-210.000
1666.7000, -79.364
1666.8000, -74.646
1666.9000, -74.300
1667.0000, -80.825
1667.1000, -72.651
1667.2000, -74.339
1667.3000, -73.430
1667.4000,-210.000
1667.5000, -73.135
1667.6000, -72.220
1667.7000,-210.000
1667.8000, -73.464
1667.9000,-210.000
1668.0000, -73.668
1668.1000,-210.000
1668.2000, -76.943
1668.3000,-210.000
1668.4000, -83.231
1668.5000,-210.000
1668.6000, -88.421
1668.7000,-210.000
1668.8000,-210.000
1668.9000, -76.254
1669.0000,-210.000
1669.1000, -69.380
1669.2000,-210.000
1669.3000,-210.000
1669.4000, -80.600
1669.5000, -73.791
1669.6000, -75.400
1669.7000,-210.000
1669.8000, -76.720
1669.9000, -73.517
1670.0000,-210.000
1670.1000, -72.609
1670.2000,-210.000
1670.3000, -69.411
1670.4000,-210.000
1670.5000,-210.000
1670.6000, -73.042
1670.7000,-210.000
1670.8000,-210.000
1670.9000, -74.527
1671.0000, -73.566
1671.1000, -74.698
1671.2000,-210.000
1671.3000, -76.900
1671.4000, -72.882
1671.5000, -76.100
1671.6000, -74.291
1671.7000, -73.328
1671.8000, -71.956
1671.9000,-210.000
1672.0000, -72.208
1672.1000, -75.531
1672.2000, -78.933
1672.3000, -83.046
1672.4000, -76.293
1672.5000, -72.130
1672.6000,-210.000
1672.7000, -75.070
1672.8000,-210.000
1672.9000,-210.000
1673.0000, -69.721
1673.1000, -75.478
1673.2000,-210.000
1673.3000, -72.479
1673.4000,-210.000
1673.5000, -74.961
1673.6000, -72.249
1673.7000,-210.000
1673.8000, -76.106
1673.9000, -71.109
1674.0000,-210.000
1674.1000, -73.994
1674.2000,-210.000
1674.3000, -75.432
1674.4000, -73.338
1674.5000,-210.000
1674.6000, -70.143
1674.7000, -69.464
1674.8000,-210.000
1674.9000, -69.903
1675.0000, -70.068
1675.1000, -73.769
1675.2000,-210.000
1675.3000, -72.707
1675.4000,-210.000
1675.5000, -74.723
1675.6000, -73.252
1675.7000, -74.336
1675.8000, -75.328
1675.9000, -71.661
1676.0000, -74.074
1676.1000,-210.000
1676.2000, -66.083
1676.3000,-210.000
1676.4000, -80.994
1676.5000, -74.784
1676.6000, -84.335
1676.7000,-210.000
1676.8000, -71.295
1676.9000, -74.588
1677.0000,-102.448
1677.1000, -72.589
1677.2000,-210.000
1677.3000, -73.894
1677.4000, -76.967
1677.5000, -75.520
1677.6000, -71.537
1677.7000,-210.000
1677.8000, -74.522
1677.9000, -74.565
1678.0000, -70.872
1678.1000, -72.944
1678.2000,-210.000
1678.3000,-210.000
1678.4000, -72.661
1678.5000,-210.000
1678.6000, -67.553
1678.7000,-210.000
1678.8000, -69.935
1678.9000,-210.000
1679.0000, -74.296
1679.1000, -72.752
1679.2000, -70.961
1679.3000,-210.000
1679.4000, -71.786
1679.5000, -71.355
1679.6000,-210.000
1679.7000, -77.823
1679.8000, -75.790
1679.9000,-210.000
1680.0000,-210.000
1680.1000,-210.000
1680.2000, -71.549
1680.3000, -66.687
1680.4000,-210.000
1680.5000,-210.000
1680.6000, -67.046
1680.7000, -66.811
1680.8000,-210.000
1680.9000,-210.000
1681.0000, -65.778
1681.1000, -69.706
1681.2000,-210.000
1681.3000,-210.000
1681.4000, -68.779
1681.5000,-210.000
1681.6000, -70.716
1681.7000,-210.000
1681.8000, -67.457
1681.9000,-210.000
1682.0000,-210.000
1682.1000, -68.732
1682.2000,-210.000
1682.3000, -86.821
1682.4000, -66.476
1682.5000,-210.000
1682.6000, -73.327
1682.7000, -67.514
1682.8000,-210.000
1682.9000, -68.458
1683.0000, -68.183
1683.1000, -73.465
1683.2000, -73.349
1683.3000,-210.000
1683.4000, -69.498
1683.5000,-210.000
1683.6000, -67.124
1683.7000,-210.000
1683.8000, -69.023
1683.9000,-210.000
1684.0000, -73.783
1684.1000, -69.150
1684.2000, -70.143
1684.3000, -72.490
1684.4000, -75.762
1684.5000, -76.206
1684.6000,-210.000
1684.7000, -68.905
1684.8000,-210.000
1684.9000, -80.342
1685.0000, -70.722
1685.1000, -75.012
1685.2000, -73.153
1685.3000, -72.534
1685.4000, -73.695
1685.5000, -71.226
1685.6000, -71.088
1685.7000, -69.780
1685.8000, -74.387
1685.9000, -68.401
1686.0000,-210.000
1686.1000,-210.000
1686.2000, -67.776
1686.3000, -73.810
1686.4000, -70.133
1686.5000, -75.552
1686.6000,-210.000
1686.7000, -68.928
1686.8000, -71.042
1686.9000,-210.000
1687.0000, -77.887
1687.1000, -72.994
1687.2000,-210.000
1687.3000, -67.380
1687.4000,-210.000
1687.5000, -73.230
1687.6000, -70.281
1687.7000,-210.000
1687.8000, -65.369
1687.9000,-210.000
1688.0000, -67.862
1688.1000, -70.262
1688.2000, -72.000
1688.3000, -70.426
1688.4000,-210.000
1688.5000, -95.216
1688.6000, -70.898
1688.7000, -78.054
1688.8000, -73.994
1688.9000, -71.480
1689.0000, -73.037
1689.1000, -69.238
1689.2000, -74.335
1689.3000, -69.861
1689.4000, -73.958
1689.5000,-210.000
1689.6000, -68.787
1689.7000,-210.000
1689.8000, -72.641
1689.9000, -67.612
1690.0000, -68.876
1690.1000,-210.000
1690.2000, -71.971
1690.3000, -68.545
1690.4000, -70.361
1690.5000, -67.109
1690.6000,-210.000
1690.7000, -69.222
1690.8000, -71.259
1690.9000,-210.000
1691.0000, -70.390
1691.1000,-210.000
1691.2000, -64.839
1691.3000,-210.000
1691.4000, -68.020
1691.5000,-210.000
1691.6000,-210.000
1691.7000, -65.461
1691.8000, -72.410
1691.9000, -70.930
1692.0000, -69.207
1692.1000,-210.000
1692.2000,-210.000
1692.3000, -68.454
1692.4000, -65.257
1692.5000,-210.000
1692.6000,-210.000
1692.7000, -65.928
1692.8000, -64.815
1692.9000, -71.245
1693.0000, -77.724
1693.1000, -86.931
1693.2000, -81.550
1693.3000, -79.694
1693.4000, -75.509
1693.5000, -69.743
1693.6000,-210.000
1693.7000, -67.520
1693.8000, -69.408
1693.9000,-210.000
1694.0000, -88.193
1694.1000, -66.391
1694.2000, -72.138
1694.3000, -73.728
1694.4000, -75.277
1694.5000,-210.000
1694.6000, -65.955
1694.7000,-210.000
1694.8000, -69.374
1694.9000, -72.637
1695.0000, -71.899
1695.1000,-210.000
1695.2000, -71.550
1695.3000, -72.351
1695.4000, -70.669
1695.5000, -69.737
1695.6000,-210.000
1695.7000, -70.527
1695.8000, -68.043
1695.9000, -63.410
1696.0000,-210.000
1696.1000, -67.681
1696.2000, -70.887
1696.3000, -77.838
1696.4000, -68.285
1696.5000, -65.498
1696.6000, -78.908
1696.7000, -65.280
1696.8000,-210.000
1696.9000, -64.412
1697.0000,-210.000
1697.1000, -65.650
1697.2000, -67.911
1697.3000, -77.617
1697.4000, -64.776
1697.5000, -71.174
1697.6000, -69.709
1697.7000,-210.000
1697.8000, -69.093
1697.9000, -68.280
1698.0000,-210.000
1698.1000, -70.603
1698.2000,-210.000
1698.3000, -70.100
1698.4000, -64.489
1698.5000,-210.000
1698.6000, -80.458
1698.7000, -64.825
1698.8000, -65.492
1698.9000,-210.000
1699.0000, -69.956
1699.1000,-210.000
1699.2000, -66.764
1699.3000,-210.000
1699.4000, -70.255
1699.5000,-210.000
1699.6000, -66.951
1699.7000, -68.951
1699.8000,-210.000
1699.9000, -67.746
1700.0000, -75.857
