70BCSV 	
// AQ6370B OPTICAL SPECTRUM ANALYZER //                 
25
"CTRWL",1300.000000
"SPAN", 800.000000
"START WL", 900.000000
"STOP WL",1700.000000
"WLFREQ", 0
"REFL",-17.2
"LSCL",10.0
"RESLN",0.500
"AVG",   1
"SMPLAUTO",      1
"SMPL",       8001
"SMPLINTVL",0.1000
"HIGH1"
"MEAS"
"LSUNT",0
"NMSKH","OFF"
"RESCOR",0
"RESPARM", 9740
"FREQPARM", 9740






"[TRACE DATA]"
 900.0000,-210.000
 900.1000, -77.171
 900.2000, -72.547
 900.3000,-210.000
 900.4000, -74.372
 900.5000, -71.973
 900.6000, -74.629
 900.7000, -82.339
 900.8000, -72.677
 900.9000, -80.452
 901.0000, -71.451
 901.1000,-210.000
 901.2000, -72.414
 901.3000, -75.141
 901.4000, -70.786
 901.5000, -81.523
 901.6000, -78.240
 901.7000,-210.000
 901.8000, -77.656
 901.9000,-210.000
 902.0000, -73.685
 902.1000, -83.815
 902.2000, -75.719
 902.3000, -74.878
 902.4000, -76.102
 902.5000, -75.717
 902.6000, -74.783
 902.7000, -79.445
 902.8000,-210.000
 902.9000, -72.951
 903.0000, -78.616
 903.1000, -76.461
 903.2000, -73.868
 903.3000, -72.903
 903.4000, -74.545
 903.5000, -76.049
 903.6000, -73.476
 903.7000, -77.203
 903.8000, -69.042
 903.9000, -76.750
 904.0000,-210.000
 904.1000, -76.319
 904.2000, -78.481
 904.3000, -73.869
 904.4000, -79.148
 904.5000, -75.186
 904.6000, -77.473
 904.7000, -80.376
 904.8000, -73.189
 904.9000, -78.682
 905.0000, -73.003
 905.1000,-210.000
 905.2000, -71.405
 905.3000, -80.833
 905.4000, -73.223
 905.5000, -78.661
 905.6000, -75.498
 905.7000, -74.418
 905.8000, -80.778
 905.9000, -71.893
 906.0000, -85.489
 906.1000,-210.000
 906.2000, -76.444
 906.3000, -76.452
 906.4000, -73.880
 906.5000, -72.848
 906.6000, -75.863
 906.7000, -78.218
 906.8000, -81.585
 906.9000, -77.824
 907.0000, -73.779
 907.1000, -75.322
 907.2000, -74.959
 907.3000, -77.568
 907.4000, -79.725
 907.5000, -72.495
 907.6000, -75.845
 907.7000,-210.000
 907.8000, -73.519
 907.9000, -77.260
 908.0000, -75.423
 908.1000, -71.634
 908.2000, -76.550
 908.3000, -86.348
 908.4000,-210.000
 908.5000, -71.709
 908.6000, -75.337
 908.7000,-210.000
 908.8000, -70.481
 908.9000, -84.657
 909.0000, -75.194
 909.1000, -71.887
 909.2000, -71.367
 909.3000,-210.000
 909.4000, -77.701
 909.5000, -72.503
 909.6000,-210.000
 909.7000, -75.178
 909.8000,-210.000
 909.9000, -71.106
 910.0000, -80.358
 910.1000,-210.000
 910.2000, -72.156
 910.3000,-210.000
 910.4000, -78.477
 910.5000, -73.031
 910.6000, -72.236
 910.7000, -75.879
 910.8000, -82.752
 910.9000, -78.976
 911.0000, -75.132
 911.1000, -77.081
 911.2000, -77.406
 911.3000, -74.942
 911.4000, -76.222
 911.5000, -80.979
 911.6000, -78.584
 911.7000, -81.132
 911.8000, -73.279
 911.9000, -83.315
 912.0000, -73.279
 912.1000, -71.345
 912.2000,-210.000
 912.3000, -78.884
 912.4000, -72.634
 912.5000, -80.429
 912.6000,-210.000
 912.7000, -76.365
 912.8000, -74.304
 912.9000, -83.085
 913.0000, -78.097
 913.1000, -75.503
 913.2000, -78.402
 913.3000, -76.263
 913.4000, -73.419
 913.5000, -88.928
 913.6000, -78.397
 913.7000, -89.123
 913.8000, -75.304
 913.9000, -78.055
 914.0000, -75.189
 914.1000, -74.000
 914.2000, -82.482
 914.3000,-210.000
 914.4000, -78.352
 914.5000, -74.299
 914.6000, -76.888
 914.7000, -73.574
 914.8000, -76.963
 914.9000, -77.492
 915.0000, -88.215
 915.1000, -76.230
 915.2000, -85.029
 915.3000, -72.186
 915.4000, -78.827
 915.5000, -74.193
 915.6000,-210.000
 915.7000, -76.276
 915.8000, -78.055
 915.9000,-210.000
 916.0000, -75.560
 916.1000, -70.956
 916.2000,-210.000
 916.3000, -74.942
 916.4000, -71.892
 916.5000,-210.000
 916.6000, -73.705
 916.7000, -73.071
 916.8000, -81.937
 916.9000,-210.000
 917.0000, -77.544
 917.1000, -72.500
 917.2000, -96.443
 917.3000,-210.000
 917.4000,-210.000
 917.5000, -76.322
 917.6000, -81.430
 917.7000,-210.000
 917.8000, -82.125
 917.9000, -78.405
 918.0000, -72.620
 918.1000, -74.841
 918.2000,-210.000
 918.3000, -76.881
 918.4000, -82.782
 918.5000, -76.928
 918.6000, -76.474
 918.7000, -74.919
 918.8000,-210.000
 918.9000, -80.328
 919.0000,-210.000
 919.1000, -75.790
 919.2000, -74.647
 919.3000, -83.431
 919.4000, -85.215
 919.5000, -76.219
 919.6000, -77.858
 919.7000, -76.062
 919.8000, -80.875
 919.9000,-210.000
 920.0000, -87.554
 920.1000, -75.016
 920.2000, -77.573
 920.3000, -82.909
 920.4000, -76.530
 920.5000, -78.422
 920.6000, -75.720
 920.7000,-210.000
 920.8000, -80.624
 920.9000, -75.855
 921.0000, -76.270
 921.1000, -80.641
 921.2000, -96.987
 921.3000, -76.197
 921.4000,-210.000
 921.5000, -76.879
 921.6000, -76.765
 921.7000, -80.680
 921.8000, -75.454
 921.9000, -78.588
 922.0000, -80.041
 922.1000, -78.883
 922.2000, -76.712
 922.3000, -78.783
 922.4000, -82.332
 922.5000, -82.739
 922.6000, -77.377
 922.7000, -78.886
 922.8000, -77.128
 922.9000, -76.807
 923.0000, -76.757
 923.1000, -75.948
 923.2000, -77.529
 923.3000, -73.809
 923.4000, -87.806
 923.5000,-210.000
 923.6000, -77.051
 923.7000, -79.854
 923.8000,-210.000
 923.9000, -75.593
 924.0000, -81.037
 924.1000, -78.809
 924.2000, -80.000
 924.3000, -74.417
 924.4000, -82.140
 924.5000, -76.339
 924.6000, -83.039
 924.7000, -76.504
 924.8000, -80.809
 924.9000, -84.585
 925.0000, -76.605
 925.1000, -74.917
 925.2000, -77.733
 925.3000, -79.822
 925.4000, -78.114
 925.5000, -76.125
 925.6000, -78.726
 925.7000, -79.285
 925.8000,-210.000
 925.9000, -77.791
 926.0000, -78.991
 926.1000, -77.716
 926.2000, -77.205
 926.3000, -78.114
 926.4000, -77.075
 926.5000, -78.381
 926.6000, -80.973
 926.7000, -81.795
 926.8000, -77.386
 926.9000, -76.182
 927.0000, -75.227
 927.1000,-210.000
 927.2000, -80.474
 927.3000, -75.181
 927.4000,-210.000
 927.5000, -76.438
 927.6000, -75.704
 927.7000,-210.000
 927.8000, -76.046
 927.9000, -76.967
 928.0000, -76.520
 928.1000, -77.102
 928.2000,-210.000
 928.3000,-210.000
 928.4000, -84.326
 928.5000, -77.736
 928.6000, -74.821
 928.7000, -83.388
 928.8000, -77.617
 928.9000, -82.578
 929.0000, -77.316
 929.1000, -76.360
 929.2000,-210.000
 929.3000,-210.000
 929.4000, -72.479
 929.5000, -79.130
 929.6000,-210.000
 929.7000, -79.018
 929.8000, -76.278
 929.9000, -78.900
 930.0000,-210.000
 930.1000, -75.386
 930.2000, -77.305
 930.3000, -78.582
 930.4000,-210.000
 930.5000, -77.051
 930.6000, -89.706
 930.7000, -86.141
 930.8000, -78.936
 930.9000, -77.655
 931.0000, -79.951
 931.1000, -77.774
 931.2000, -73.863
 931.3000, -80.928
 931.4000, -77.393
 931.5000, -75.941
 931.6000,-210.000
 931.7000,-210.000
 931.8000, -78.657
 931.9000, -78.153
 932.0000, -77.274
 932.1000, -79.868
 932.2000, -81.459
 932.3000,-210.000
 932.4000, -78.358
 932.5000, -81.554
 932.6000, -76.001
 932.7000, -78.785
 932.8000, -80.396
 932.9000, -85.901
 933.0000, -76.691
 933.1000, -80.100
 933.2000, -76.888
 933.3000, -79.502
 933.4000, -79.204
 933.5000, -78.832
 933.6000, -78.226
 933.7000, -79.027
 933.8000, -78.020
 933.9000,-210.000
 934.0000, -84.509
 934.1000, -78.805
 934.2000, -75.808
 934.3000, -83.768
 934.4000,-210.000
 934.5000, -79.164
 934.6000, -75.315
 934.7000, -80.748
 934.8000, -77.391
 934.9000, -80.536
 935.0000, -84.831
 935.1000, -80.130
 935.2000, -80.927
 935.3000, -76.778
 935.4000, -81.076
 935.5000, -81.217
 935.6000, -77.246
 935.7000, -79.522
 935.8000,-210.000
 935.9000, -76.319
 936.0000, -81.384
 936.1000, -77.657
 936.2000, -75.499
 936.3000, -75.534
 936.4000, -78.343
 936.5000,-210.000
 936.6000,-210.000
 936.7000, -73.763
 936.8000,-210.000
 936.9000, -77.497
 937.0000, -80.269
 937.1000, -80.632
 937.2000, -76.158
 937.3000, -78.663
 937.4000, -85.400
 937.5000, -80.910
 937.6000, -76.228
 937.7000, -75.379
 937.8000, -78.442
 937.9000, -80.499
 938.0000, -81.881
 938.1000, -76.056
 938.2000, -76.537
 938.3000, -77.452
 938.4000, -74.226
 938.5000, -75.193
 938.6000, -78.662
 938.7000, -75.879
 938.8000, -76.418
 938.9000, -77.424
 939.0000, -75.952
 939.1000, -75.831
 939.2000, -75.748
 939.3000, -77.818
 939.4000,-210.000
 939.5000, -76.866
 939.6000, -82.702
 939.7000, -74.469
 939.8000, -81.113
 939.9000, -86.199
 940.0000, -78.310
 940.1000, -83.196
 940.2000,-210.000
 940.3000, -76.647
 940.4000, -80.506
 940.5000, -77.253
 940.6000,-210.000
 940.7000, -78.817
 940.8000, -83.070
 940.9000, -79.329
 941.0000, -76.506
 941.1000,-210.000
 941.2000, -81.536
 941.3000, -79.119
 941.4000, -81.775
 941.5000, -79.163
 941.6000, -80.400
 941.7000, -77.465
 941.8000,-210.000
 941.9000, -78.123
 942.0000, -77.311
 942.1000, -80.660
 942.2000, -75.244
 942.3000,-210.000
 942.4000, -79.294
 942.5000, -82.412
 942.6000, -79.141
 942.7000,-210.000
 942.8000, -79.239
 942.9000, -82.062
 943.0000, -79.429
 943.1000, -78.787
 943.2000, -80.286
 943.3000, -78.337
 943.4000, -77.666
 943.5000,-210.000
 943.6000, -89.627
 943.7000, -90.783
 943.8000, -76.647
 943.9000, -81.022
 944.0000, -82.474
 944.1000, -79.933
 944.2000, -78.742
 944.3000, -77.850
 944.4000, -76.592
 944.5000, -76.674
 944.6000,-210.000
 944.7000, -78.434
 944.8000, -76.817
 944.9000, -80.514
 945.0000, -80.016
 945.1000, -77.522
 945.2000, -75.046
 945.3000, -76.376
 945.4000, -75.479
 945.5000, -82.084
 945.6000, -76.572
 945.7000, -75.856
 945.8000, -74.289
 945.9000, -73.441
 946.0000, -73.822
 946.1000, -72.884
 946.2000, -73.325
 946.3000, -73.779
 946.4000, -74.061
 946.5000, -73.455
 946.6000, -74.607
 946.7000, -76.232
 946.8000, -74.703
 946.9000, -74.688
 947.0000, -75.469
 947.1000, -80.732
 947.2000, -83.192
 947.3000, -76.790
 947.4000, -85.695
 947.5000, -77.625
 947.6000, -75.822
 947.7000, -78.735
 947.8000, -79.052
 947.9000, -77.814
 948.0000, -78.453
 948.1000, -84.563
 948.2000, -78.413
 948.3000,-210.000
 948.4000, -78.048
 948.5000, -79.249
 948.6000, -77.792
 948.7000,-210.000
 948.8000, -87.456
 948.9000, -76.164
 949.0000,-210.000
 949.1000, -79.093
 949.2000, -78.065
 949.3000, -79.318
 949.4000, -79.463
 949.5000, -80.048
 949.6000, -77.227
 949.7000,-210.000
 949.8000, -78.258
 949.9000, -78.519
 950.0000, -74.516
 950.1000, -79.790
 950.2000,-210.000
 950.3000,-210.000
 950.4000, -85.380
 950.5000, -74.844
 950.6000, -76.113
 950.7000, -80.278
 950.8000, -82.962
 950.9000, -81.701
 951.0000, -78.423
 951.1000, -82.404
 951.2000,-210.000
 951.3000,-210.000
 951.4000, -79.411
 951.5000, -79.557
 951.6000, -78.335
 951.7000, -83.058
 951.8000, -82.334
 951.9000, -78.660
 952.0000, -83.728
 952.1000, -86.905
 952.2000,-210.000
 952.3000, -79.210
 952.4000, -83.655
 952.5000, -81.553
 952.6000, -83.875
 952.7000, -90.184
 952.8000, -76.977
 952.9000,-210.000
 953.0000, -82.758
 953.1000, -79.401
 953.2000, -81.271
 953.3000, -77.739
 953.4000,-210.000
 953.5000, -79.923
 953.6000, -78.689
 953.7000, -77.735
 953.8000,-210.000
 953.9000, -86.495
 954.0000, -84.959
 954.1000, -79.623
 954.2000, -79.210
 954.3000, -81.787
 954.4000, -81.415
 954.5000, -82.676
 954.6000,-210.000
 954.7000, -78.988
 954.8000, -75.872
 954.9000, -88.904
 955.0000,-210.000
 955.1000, -79.874
 955.2000, -80.168
 955.3000, -80.575
 955.4000, -81.200
 955.5000, -86.311
 955.6000, -82.674
 955.7000, -82.572
 955.8000, -96.816
 955.9000, -79.033
 956.0000,-210.000
 956.1000, -80.750
 956.2000, -78.045
 956.3000, -79.218
 956.4000, -78.987
 956.5000, -80.144
 956.6000, -83.145
 956.7000, -80.033
 956.8000,-210.000
 956.9000, -82.160
 957.0000, -78.866
 957.1000, -88.520
 957.2000, -83.428
 957.3000, -83.617
 957.4000, -83.195
 957.5000, -80.169
 957.6000, -80.866
 957.7000, -84.586
 957.8000, -78.603
 957.9000, -82.826
 958.0000, -82.129
 958.1000, -78.535
 958.2000, -80.972
 958.3000, -88.546
 958.4000, -78.442
 958.5000, -81.660
 958.6000, -80.143
 958.7000, -99.801
 958.8000, -85.581
 958.9000, -78.987
 959.0000, -83.576
 959.1000, -78.775
 959.2000, -93.291
 959.3000, -81.148
 959.4000, -93.876
 959.5000, -82.423
 959.6000,-210.000
 959.7000, -89.773
 959.8000, -78.777
 959.9000, -83.446
 960.0000, -77.982
 960.1000,-102.045
 960.2000, -86.540
 960.3000, -78.797
 960.4000, -84.212
 960.5000, -78.685
 960.6000, -80.341
 960.7000, -79.886
 960.8000, -84.345
 960.9000, -81.008
 961.0000, -80.324
 961.1000, -79.069
 961.2000, -80.692
 961.3000, -79.948
 961.4000, -86.704
 961.5000, -83.585
 961.6000, -78.914
 961.7000, -81.313
 961.8000, -90.738
 961.9000, -79.267
 962.0000, -81.464
 962.1000, -81.329
 962.2000, -77.374
 962.3000, -83.791
 962.4000, -83.945
 962.5000, -81.430
 962.6000, -81.400
 962.7000, -84.829
 962.8000, -78.118
 962.9000, -78.873
 963.0000, -83.848
 963.1000,-210.000
 963.2000, -74.688
 963.3000, -80.085
 963.4000, -79.327
 963.5000, -79.411
 963.6000, -85.101
 963.7000, -80.810
 963.8000, -81.679
 963.9000, -76.998
 964.0000, -80.802
 964.1000, -83.472
 964.2000, -77.839
 964.3000,-210.000
 964.4000, -77.280
 964.5000, -81.556
 964.6000,-210.000
 964.7000, -79.841
 964.8000, -79.792
 964.9000,-210.000
 965.0000,-210.000
 965.1000, -84.881
 965.2000, -79.570
 965.3000, -81.950
 965.4000, -78.826
 965.5000,-210.000
 965.6000, -79.331
 965.7000, -77.019
 965.8000, -77.482
 965.9000,-210.000
 966.0000, -79.919
 966.1000, -78.750
 966.2000, -79.976
 966.3000, -84.583
 966.4000, -80.097
 966.5000,-210.000
 966.6000, -79.201
 966.7000,-210.000
 966.8000,-210.000
 966.9000, -79.280
 967.0000, -80.204
 967.1000, -83.640
 967.2000, -82.302
 967.3000, -78.275
 967.4000, -80.972
 967.5000, -82.471
 967.6000, -79.469
 967.7000,-210.000
 967.8000, -81.624
 967.9000, -88.537
 968.0000, -82.085
 968.1000, -81.289
 968.2000, -81.883
 968.3000, -81.948
 968.4000, -81.534
 968.5000, -89.654
 968.6000, -81.726
 968.7000, -79.388
 968.8000, -80.615
 968.9000, -83.570
 969.0000, -78.892
 969.1000, -80.260
 969.2000, -81.505
 969.3000, -80.520
 969.4000, -84.216
 969.5000, -82.159
 969.6000, -85.532
 969.7000, -78.610
 969.8000, -82.555
 969.9000,-102.301
 970.0000, -79.464
 970.1000, -81.236
 970.2000, -82.154
 970.3000, -83.019
 970.4000, -81.322
 970.5000, -80.755
 970.6000,-210.000
 970.7000,-210.000
 970.8000, -81.981
 970.9000, -79.153
 971.0000, -80.974
 971.1000, -86.765
 971.2000, -78.539
 971.3000, -80.209
 971.4000, -90.176
 971.5000,-210.000
 971.6000, -76.307
 971.7000,-210.000
 971.8000, -77.763
 971.9000, -75.829
 972.0000, -86.426
 972.1000, -84.551
 972.2000, -83.966
 972.3000, -84.005
 972.4000, -83.499
 972.5000,-210.000
 972.6000, -75.638
 972.7000, -82.154
 972.8000, -79.364
 972.9000, -81.982
 973.0000, -80.249
 973.1000, -92.300
 973.2000, -79.815
 973.3000, -79.271
 973.4000,-210.000
 973.5000, -87.601
 973.6000, -91.980
 973.7000, -78.663
 973.8000, -85.682
 973.9000, -77.608
 974.0000, -79.421
 974.1000,-210.000
 974.2000, -79.525
 974.3000, -87.275
 974.4000, -80.534
 974.5000, -83.555
 974.6000, -78.910
 974.7000,-210.000
 974.8000, -82.825
 974.9000, -81.235
 975.0000, -95.199
 975.1000, -80.430
 975.2000, -83.459
 975.3000, -80.887
 975.4000, -94.667
 975.5000, -75.324
 975.6000,-210.000
 975.7000, -78.768
 975.8000,-210.000
 975.9000, -88.172
 976.0000, -78.388
 976.1000, -83.320
 976.2000,-210.000
 976.3000, -92.562
 976.4000, -82.312
 976.5000, -79.246
 976.6000,-210.000
 976.7000, -79.464
 976.8000, -93.538
 976.9000, -84.673
 977.0000, -92.712
 977.1000, -79.442
 977.2000, -81.540
 977.3000, -77.371
 977.4000, -80.542
 977.5000, -79.984
 977.6000, -86.347
 977.7000,-210.000
 977.8000, -79.686
 977.9000,-210.000
 978.0000, -80.114
 978.1000, -84.570
 978.2000, -84.268
 978.3000, -78.896
 978.4000, -88.446
 978.5000, -80.493
 978.6000, -77.352
 978.7000, -81.543
 978.8000, -85.915
 978.9000, -81.063
 979.0000, -81.759
 979.1000, -81.401
 979.2000, -83.234
 979.3000, -78.833
 979.4000, -79.655
 979.5000, -82.304
 979.6000, -77.210
 979.7000,-210.000
 979.8000, -83.339
 979.9000, -78.238
 980.0000, -82.165
 980.1000, -82.877
 980.2000, -86.920
 980.3000, -87.662
 980.4000, -74.745
 980.5000,-210.000
 980.6000,-210.000
 980.7000, -81.948
 980.8000, -78.310
 980.9000, -82.824
 981.0000, -79.895
 981.1000, -78.941
 981.2000, -82.346
 981.3000,-210.000
 981.4000,-210.000
 981.5000, -74.910
 981.6000, -91.134
 981.7000, -84.787
 981.8000,-210.000
 981.9000, -79.676
 982.0000, -77.790
 982.1000, -81.004
 982.2000, -84.576
 982.3000, -82.272
 982.4000, -79.994
 982.5000, -79.986
 982.6000, -81.991
 982.7000, -78.685
 982.8000,-210.000
 982.9000,-210.000
 983.0000, -79.384
 983.1000, -83.749
 983.2000, -80.490
 983.3000, -78.129
 983.4000, -92.544
 983.5000, -79.125
 983.6000, -79.202
 983.7000,-210.000
 983.8000, -80.323
 983.9000, -75.999
 984.0000,-210.000
 984.1000, -81.017
 984.2000, -86.549
 984.3000,-210.000
 984.4000, -84.336
 984.5000, -80.052
 984.6000, -82.409
 984.7000, -77.394
 984.8000, -80.097
 984.9000,-210.000
 985.0000, -82.035
 985.1000, -80.009
 985.2000, -78.290
 985.3000, -85.445
 985.4000, -82.081
 985.5000, -87.650
 985.6000, -80.357
 985.7000, -81.363
 985.8000, -79.542
 985.9000, -83.572
 986.0000, -82.018
 986.1000, -79.853
 986.2000, -86.807
 986.3000, -80.665
 986.4000, -80.787
 986.5000,-210.000
 986.6000, -77.302
 986.7000,-210.000
 986.8000, -80.111
 986.9000,-210.000
 987.0000, -77.887
 987.1000, -78.911
 987.2000, -83.807
 987.3000, -78.306
 987.4000, -76.307
 987.5000,-210.000
 987.6000, -80.270
 987.7000, -79.916
 987.8000, -81.243
 987.9000, -80.309
 988.0000,-210.000
 988.1000, -81.195
 988.2000, -89.135
 988.3000, -81.892
 988.4000,-210.000
 988.5000, -81.704
 988.6000, -80.227
 988.7000, -84.721
 988.8000, -81.816
 988.9000, -80.458
 989.0000, -83.094
 989.1000, -84.666
 989.2000, -80.127
 989.3000, -84.934
 989.4000, -84.613
 989.5000, -79.476
 989.6000, -82.310
 989.7000, -81.320
 989.8000, -78.496
 989.9000, -82.581
 990.0000, -86.192
 990.1000, -85.373
 990.2000, -80.307
 990.3000, -83.929
 990.4000, -87.390
 990.5000, -79.281
 990.6000, -85.678
 990.7000, -84.325
 990.8000, -81.493
 990.9000, -83.054
 991.0000, -83.071
 991.1000, -84.847
 991.2000, -78.935
 991.3000, -82.864
 991.4000, -78.534
 991.5000, -79.765
 991.6000,-210.000
 991.7000, -87.407
 991.8000, -80.877
 991.9000, -77.910
 992.0000,-210.000
 992.1000, -81.910
 992.2000, -81.532
 992.3000, -78.673
 992.4000, -84.838
 992.5000, -79.547
 992.6000, -77.592
 992.7000, -85.334
 992.8000, -81.720
 992.9000,-210.000
 993.0000, -77.794
 993.1000, -82.921
 993.2000, -81.528
 993.3000, -97.354
 993.4000, -81.137
 993.5000, -86.440
 993.6000, -83.086
 993.7000, -79.613
 993.8000,-210.000
 993.9000, -89.650
 994.0000, -81.107
 994.1000, -84.061
 994.2000, -80.396
 994.3000, -84.028
 994.4000, -82.241
 994.5000, -84.128
 994.6000, -82.105
 994.7000,-103.578
 994.8000, -81.575
 994.9000, -80.053
 995.0000, -81.223
 995.1000, -81.464
 995.2000, -81.225
 995.3000, -80.949
 995.4000, -85.518
 995.5000, -79.849
 995.6000,-210.000
 995.7000,-210.000
 995.8000,-210.000
 995.9000, -77.445
 996.0000, -80.204
 996.1000, -86.113
 996.2000, -78.117
 996.3000, -87.845
 996.4000, -80.225
 996.5000, -85.778
 996.6000,-210.000
 996.7000, -82.607
 996.8000, -84.031
 996.9000, -81.060
 997.0000, -78.550
 997.1000, -85.433
 997.2000, -86.839
 997.3000,-210.000
 997.4000, -80.149
 997.5000, -83.810
 997.6000, -81.731
 997.7000, -95.385
 997.8000, -79.923
 997.9000, -82.571
 998.0000, -79.601
 998.1000, -87.077
 998.2000, -85.602
 998.3000, -81.156
 998.4000, -80.005
 998.5000, -82.165
 998.6000, -81.296
 998.7000, -86.017
 998.8000, -81.220
 998.9000, -80.324
 999.0000, -84.461
 999.1000, -84.285
 999.2000, -81.895
 999.3000, -83.230
 999.4000, -81.136
 999.5000, -82.148
 999.6000, -91.639
 999.7000, -82.533
 999.8000, -79.756
 999.9000, -85.059
1000.0000, -85.287
1000.1000,-210.000
1000.2000, -78.508
1000.3000, -81.783
1000.4000, -82.429
1000.5000, -79.561
1000.6000, -80.248
1000.7000, -79.865
1000.8000,-210.000
1000.9000, -84.210
1001.0000, -82.417
1001.1000, -79.616
1001.2000, -81.127
1001.3000, -78.969
1001.4000, -80.751
1001.5000,-210.000
1001.6000, -80.605
1001.7000, -80.921
1001.8000, -86.584
1001.9000,-210.000
1002.0000, -80.644
1002.1000, -80.408
1002.2000, -83.300
1002.3000, -79.521
1002.4000, -80.951
1002.5000, -83.936
1002.6000, -79.117
1002.7000, -79.826
1002.8000, -79.745
1002.9000,-210.000
1003.0000, -81.947
1003.1000, -83.199
1003.2000, -78.975
1003.3000, -78.546
1003.4000,-111.726
1003.5000, -83.804
1003.6000, -84.785
1003.7000, -81.898
1003.8000, -84.002
1003.9000, -81.935
1004.0000, -78.917
1004.1000, -81.043
1004.2000, -80.421
1004.3000,-210.000
1004.4000, -80.546
1004.5000, -79.983
1004.6000, -82.796
1004.7000, -85.338
1004.8000, -83.444
1004.9000, -78.542
1005.0000, -85.945
1005.1000, -95.236
1005.2000, -79.535
1005.3000, -84.798
1005.4000, -82.154
1005.5000, -77.892
1005.6000, -87.667
1005.7000, -82.276
1005.8000, -80.468
1005.9000, -82.968
1006.0000,-210.000
1006.1000, -79.821
1006.2000, -78.260
1006.3000, -80.118
1006.4000, -86.086
1006.5000, -86.316
1006.6000, -80.114
1006.7000, -83.928
1006.8000,-210.000
1006.9000, -80.518
1007.0000, -85.103
1007.1000, -78.554
1007.2000, -79.060
1007.3000, -81.216
1007.4000, -86.180
1007.5000, -82.914
1007.6000,-210.000
1007.7000, -74.453
1007.8000,-210.000
1007.9000,-210.000
1008.0000,-210.000
1008.1000, -81.533
1008.2000, -81.421
1008.3000,-210.000
1008.4000, -81.349
1008.5000, -83.048
1008.6000, -82.079
1008.7000, -80.349
1008.8000, -79.520
1008.9000, -82.155
1009.0000, -86.611
1009.1000, -82.774
1009.2000, -82.425
1009.3000, -79.772
1009.4000, -82.692
1009.5000, -79.481
1009.6000, -82.392
1009.7000, -79.603
1009.8000, -83.310
1009.9000, -80.238
1010.0000, -83.220
1010.1000, -84.223
1010.2000, -89.504
1010.3000, -80.940
1010.4000, -79.447
1010.5000, -81.267
1010.6000, -87.786
1010.7000, -77.826
1010.8000, -80.314
1010.9000, -84.627
1011.0000, -82.831
1011.1000, -79.015
1011.2000, -81.789
1011.3000, -84.970
1011.4000, -79.515
1011.5000, -85.843
1011.6000, -93.427
1011.7000, -80.241
1011.8000, -81.403
1011.9000, -80.639
1012.0000, -86.037
1012.1000, -79.479
1012.2000, -82.695
1012.3000, -82.441
1012.4000, -79.338
1012.5000, -82.126
1012.6000, -85.630
1012.7000, -80.369
1012.8000, -84.481
1012.9000, -81.303
1013.0000, -79.381
1013.1000, -82.565
1013.2000, -86.408
1013.3000, -79.326
1013.4000, -82.888
1013.5000, -80.457
1013.6000, -83.040
1013.7000, -82.948
1013.8000, -79.456
1013.9000, -79.640
1014.0000, -78.750
1014.1000, -85.614
1014.2000, -82.257
1014.3000,-210.000
1014.4000, -82.176
1014.5000, -77.853
1014.6000, -86.856
1014.7000, -80.773
1014.8000, -86.611
1014.9000, -80.929
1015.0000, -80.491
1015.1000, -80.252
1015.2000, -84.681
1015.3000, -79.147
1015.4000,-210.000
1015.5000, -80.371
1015.6000, -79.538
1015.7000, -81.033
1015.8000, -80.743
1015.9000, -89.165
1016.0000, -82.789
1016.1000, -78.154
1016.2000, -82.756
1016.3000, -79.820
1016.4000, -81.689
1016.5000,-210.000
1016.6000, -92.172
1016.7000, -82.424
1016.8000, -85.585
1016.9000, -75.526
1017.0000,-210.000
1017.1000, -81.833
1017.2000, -81.077
1017.3000, -84.668
1017.4000, -84.517
1017.5000, -78.277
1017.6000, -79.688
1017.7000, -80.515
1017.8000, -86.108
1017.9000,-210.000
1018.0000, -79.837
1018.1000, -78.874
1018.2000,-210.000
1018.3000, -81.632
1018.4000,-210.000
1018.5000, -81.040
1018.6000, -80.578
1018.7000, -79.501
1018.8000, -80.335
1018.9000, -87.322
1019.0000, -83.038
1019.1000, -79.963
1019.2000, -81.046
1019.3000, -82.965
1019.4000, -81.381
1019.5000, -80.121
1019.6000, -79.307
1019.7000, -83.476
1019.8000, -83.460
1019.9000,-210.000
1020.0000, -78.129
1020.1000, -80.220
1020.2000, -86.282
1020.3000, -82.774
1020.4000, -84.773
1020.5000, -79.483
1020.6000, -79.464
1020.7000, -82.956
1020.8000, -82.669
1020.9000, -81.910
1021.0000, -79.591
1021.1000, -79.573
1021.2000, -81.184
1021.3000, -79.676
1021.4000, -81.881
1021.5000, -79.751
1021.6000, -90.167
1021.7000, -80.060
1021.8000, -78.890
1021.9000, -79.910
1022.0000, -81.785
1022.1000, -82.676
1022.2000, -80.671
1022.3000, -80.467
1022.4000, -80.255
1022.5000, -80.678
1022.6000, -80.688
1022.7000, -80.713
1022.8000, -94.596
1022.9000, -77.868
1023.0000, -85.757
1023.1000, -91.601
1023.2000, -80.142
1023.3000, -82.505
1023.4000, -78.309
1023.5000, -90.588
1023.6000, -80.612
1023.7000, -82.257
1023.8000, -82.891
1023.9000, -80.932
1024.0000, -83.161
1024.1000, -81.748
1024.2000, -79.461
1024.3000, -80.120
1024.4000, -86.901
1024.5000, -84.344
1024.6000, -81.283
1024.7000, -78.817
1024.8000, -80.451
1024.9000, -85.069
1025.0000, -82.125
1025.1000, -79.799
1025.2000, -78.554
1025.3000, -88.606
1025.4000, -83.567
1025.5000, -80.017
1025.6000, -82.496
1025.7000, -80.314
1025.8000, -82.448
1025.9000, -80.248
1026.0000, -80.162
1026.1000, -81.190
1026.2000, -83.463
1026.3000, -79.636
1026.4000, -87.739
1026.5000, -79.852
1026.6000, -80.351
1026.7000, -79.902
1026.8000, -82.703
1026.9000, -79.347
1027.0000, -88.925
1027.1000, -81.032
1027.2000, -83.035
1027.3000, -79.561
1027.4000, -84.308
1027.5000, -80.232
1027.6000, -80.299
1027.7000, -80.061
1027.8000, -82.475
1027.9000, -81.661
1028.0000, -85.543
1028.1000, -79.172
1028.2000, -78.309
1028.3000, -82.009
1028.4000, -86.052
1028.5000, -81.721
1028.6000, -78.679
1028.7000, -81.283
1028.8000, -82.539
1028.9000, -81.829
1029.0000, -80.674
1029.1000, -82.310
1029.2000, -80.285
1029.3000, -86.441
1029.4000, -82.490
1029.5000, -81.158
1029.6000, -80.391
1029.7000, -80.027
1029.8000, -81.303
1029.9000, -80.845
1030.0000, -82.683
1030.1000, -80.672
1030.2000, -79.592
1030.3000, -79.721
1030.4000, -80.108
1030.5000,-210.000
1030.6000, -78.523
1030.7000, -78.481
1030.8000, -80.799
1030.9000, -83.778
1031.0000, -79.029
1031.1000, -80.527
1031.2000, -85.171
1031.3000, -79.161
1031.4000, -79.564
1031.5000, -82.654
1031.6000, -81.373
1031.7000, -86.669
1031.8000, -81.920
1031.9000, -79.881
1032.0000, -78.622
1032.1000, -79.730
1032.2000, -80.149
1032.3000, -78.816
1032.4000,-210.000
1032.5000, -78.817
1032.6000, -80.892
1032.7000, -88.216
1032.8000, -82.783
1032.9000, -82.925
1033.0000, -81.481
1033.1000, -79.975
1033.2000, -79.328
1033.3000, -83.193
1033.4000, -83.938
1033.5000, -79.769
1033.6000, -82.431
1033.7000, -78.144
1033.8000, -81.685
1033.9000, -79.470
1034.0000, -83.130
1034.1000, -84.849
1034.2000, -78.263
1034.3000, -88.528
1034.4000, -78.705
1034.5000, -95.090
1034.6000, -81.361
1034.7000, -83.148
1034.8000, -79.172
1034.9000, -83.482
1035.0000, -79.364
1035.1000, -88.374
1035.2000, -83.576
1035.3000, -82.197
1035.4000, -80.199
1035.5000, -83.717
1035.6000, -81.568
1035.7000, -82.000
1035.8000, -80.452
1035.9000, -79.506
1036.0000, -80.069
1036.1000, -79.910
1036.2000, -81.756
1036.3000, -81.697
1036.4000, -80.138
1036.5000, -81.740
1036.6000, -81.378
1036.7000, -83.175
1036.8000, -81.029
1036.9000, -79.679
1037.0000, -80.676
1037.1000, -80.571
1037.2000, -85.672
1037.3000, -80.963
1037.4000, -81.294
1037.5000, -82.057
1037.6000, -79.449
1037.7000, -85.076
1037.8000, -82.043
1037.9000, -78.773
1038.0000, -79.758
1038.1000, -79.086
1038.2000, -90.390
1038.3000, -79.846
1038.4000, -85.678
1038.5000, -78.989
1038.6000, -85.366
1038.7000, -84.259
1038.8000, -79.989
1038.9000, -81.107
1039.0000, -78.191
1039.1000, -81.863
1039.2000,-210.000
1039.3000, -76.455
1039.4000,-210.000
1039.5000,-210.000
1039.6000, -82.055
1039.7000, -90.253
1039.8000, -83.103
1039.9000, -80.512
1040.0000, -80.657
1040.1000, -79.253
1040.2000, -82.460
1040.3000, -81.500
1040.4000, -78.254
1040.5000, -85.596
1040.6000, -88.966
1040.7000, -79.760
1040.8000, -84.098
1040.9000, -80.830
1041.0000, -81.279
1041.1000, -82.494
1041.2000, -87.612
1041.3000, -80.171
1041.4000, -81.307
1041.5000, -76.867
1041.6000, -78.364
1041.7000, -85.312
1041.8000, -80.576
1041.9000, -82.076
1042.0000, -93.081
1042.1000, -78.246
1042.2000, -78.699
1042.3000,-102.380
1042.4000, -86.926
1042.5000, -77.435
1042.6000, -81.415
1042.7000,-210.000
1042.8000, -78.276
1042.9000, -83.630
1043.0000, -82.246
1043.1000, -81.147
1043.2000, -81.284
1043.3000, -81.432
1043.4000, -80.284
1043.5000, -80.331
1043.6000, -81.616
1043.7000, -81.006
1043.8000, -82.134
1043.9000, -78.449
1044.0000, -80.769
1044.1000, -81.195
1044.2000, -80.634
1044.3000, -79.013
1044.4000, -83.590
1044.5000, -79.905
1044.6000, -78.828
1044.7000, -82.101
1044.8000, -80.920
1044.9000, -80.890
1045.0000, -80.746
1045.1000, -83.576
1045.2000, -82.683
1045.3000, -78.632
1045.4000, -81.902
1045.5000, -83.482
1045.6000, -81.300
1045.7000, -81.193
1045.8000, -80.551
1045.9000,-210.000
1046.0000, -79.281
1046.1000, -79.414
1046.2000, -81.207
1046.3000, -78.767
1046.4000, -83.882
1046.5000, -82.589
1046.6000, -83.678
1046.7000, -80.318
1046.8000, -79.714
1046.9000, -80.793
1047.0000, -79.473
1047.1000, -79.741
1047.2000, -81.055
1047.3000, -80.834
1047.4000, -79.542
1047.5000, -82.871
1047.6000, -80.572
1047.7000, -80.785
1047.8000, -79.066
1047.9000, -82.631
1048.0000, -82.866
1048.1000, -80.655
1048.2000, -81.602
1048.3000, -78.399
1048.4000, -79.963
1048.5000, -81.094
1048.6000, -81.006
1048.7000, -80.098
1048.8000, -78.954
1048.9000, -78.416
1049.0000, -80.275
1049.1000, -78.591
1049.2000, -78.501
1049.3000, -79.403
1049.4000, -78.472
1049.5000, -79.585
1049.6000, -79.965
1049.7000, -80.245
1049.8000, -81.432
1049.9000, -79.496
1050.0000, -78.824
1050.1000, -80.255
1050.2000, -79.326
1050.3000, -80.615
1050.4000, -77.607
1050.5000, -79.324
1050.6000, -81.203
1050.7000, -77.455
1050.8000, -78.616
1050.9000, -78.136
1051.0000, -79.784
1051.1000, -79.052
1051.2000, -85.393
1051.3000, -77.307
1051.4000, -82.783
1051.5000, -77.850
1051.6000, -76.222
1051.7000, -80.299
1051.8000, -78.017
1051.9000, -76.552
1052.0000, -78.137
1052.1000, -77.383
1052.2000, -74.600
1052.3000, -74.611
1052.4000, -74.025
1052.5000, -74.046
1052.6000, -74.727
1052.7000, -73.549
1052.8000, -73.772
1052.9000, -75.157
1053.0000, -75.311
1053.1000, -76.850
1053.2000, -77.282
1053.3000, -78.100
1053.4000, -78.171
1053.5000, -78.675
1053.6000, -77.733
1053.7000, -80.297
1053.8000, -79.650
1053.9000, -78.108
1054.0000, -79.489
1054.1000, -79.692
1054.2000, -79.468
1054.3000, -77.364
1054.4000, -77.894
1054.5000, -77.063
1054.6000, -75.228
1054.7000, -75.333
1054.8000, -73.983
1054.9000, -73.337
1055.0000, -73.747
1055.1000, -73.614
1055.2000, -73.841
1055.3000, -74.899
1055.4000, -76.399
1055.5000, -77.893
1055.6000, -78.242
1055.7000, -76.700
1055.8000, -78.577
1055.9000, -77.952
1056.0000, -79.505
1056.1000, -79.063
1056.2000, -77.566
1056.3000, -77.279
1056.4000, -78.391
1056.5000, -80.316
1056.6000, -77.406
1056.7000, -77.829
1056.8000, -77.710
1056.9000, -77.555
1057.0000, -78.893
1057.1000, -77.996
1057.2000, -77.959
1057.3000, -79.119
1057.4000, -77.591
1057.5000, -77.985
1057.6000, -77.422
1057.7000, -77.350
1057.8000, -76.789
1057.9000, -78.760
1058.0000, -77.078
1058.1000, -77.091
1058.2000, -79.122
1058.3000, -77.975
1058.4000, -77.114
1058.5000, -78.779
1058.6000, -76.969
1058.7000, -77.231
1058.8000, -76.769
1058.9000, -76.968
1059.0000, -76.229
1059.1000, -76.904
1059.2000, -76.842
1059.3000, -76.167
1059.4000, -76.386
1059.5000, -76.066
1059.6000, -76.065
1059.7000, -75.613
1059.8000, -75.570
1059.9000, -76.094
1060.0000, -75.255
1060.1000, -75.103
1060.2000, -75.082
1060.3000, -74.858
1060.4000, -74.897
1060.5000, -74.419
1060.6000, -74.598
1060.7000, -73.880
1060.8000, -73.996
1060.9000, -73.756
1061.0000, -73.763
1061.1000, -72.810
1061.2000, -72.564
1061.3000, -72.156
1061.4000, -72.193
1061.5000, -71.826
1061.6000, -70.227
1061.7000, -69.362
1061.8000, -69.160
1061.9000, -68.971
1062.0000, -68.735
1062.1000, -68.256
1062.2000, -68.186
1062.3000, -68.453
1062.4000, -69.202
1062.5000, -68.884
1062.6000, -68.576
1062.7000, -68.561
1062.8000, -68.169
1062.9000, -67.839
1063.0000, -67.367
1063.1000, -67.076
1063.2000, -66.413
1063.3000, -65.755
1063.4000, -65.008
1063.5000, -64.215
1063.6000, -63.368
1063.7000, -62.415
1063.8000, -61.385
1063.9000, -60.252
1064.0000, -58.721
1064.1000, -55.534
1064.2000, -38.598
1064.3000, -20.898
1064.4000, -13.526
1064.5000, -10.951
1064.6000, -10.681
1064.7000, -10.667
1064.8000, -10.675
1064.9000, -10.687
1065.0000, -10.924
1065.1000, -12.794
1065.2000, -19.744
1065.3000, -37.171
1065.4000, -52.961
1065.5000, -57.915
1065.6000, -59.735
1065.7000, -61.049
1065.8000, -62.028
1065.9000, -62.884
1066.0000, -63.831
1066.1000, -64.645
1066.2000, -65.531
1066.3000, -66.086
1066.4000, -66.784
1066.5000, -67.134
1066.6000, -67.463
1066.7000, -68.194
1066.8000, -68.367
1066.9000, -69.334
1067.0000, -69.917
1067.1000, -70.328
1067.2000, -70.889
1067.3000, -70.994
1067.4000, -70.759
1067.5000, -71.162
1067.6000, -71.908
1067.7000, -71.544
1067.8000, -71.732
1067.9000, -72.131
1068.0000, -72.044
1068.1000, -72.114
1068.2000, -72.384
1068.3000, -72.363
1068.4000, -72.046
1068.5000, -72.093
1068.6000, -72.613
1068.7000, -72.541
1068.8000, -72.607
1068.9000, -73.019
1069.0000, -72.562
1069.1000, -73.193
1069.2000, -73.231
1069.3000, -72.915
1069.4000, -73.489
1069.5000, -73.943
1069.6000, -73.373
1069.7000, -73.805
1069.8000, -74.276
1069.9000, -74.092
1070.0000, -73.590
1070.1000, -73.890
1070.2000, -73.713
1070.3000, -73.863
1070.4000, -73.793
1070.5000, -74.344
1070.6000, -73.611
1070.7000, -74.324
1070.8000, -73.950
1070.9000, -74.231
1071.0000, -74.483
1071.1000, -75.273
1071.2000, -74.360
1071.3000, -73.703
1071.4000, -74.635
1071.5000, -74.022
1071.6000, -74.690
1071.7000, -74.345
1071.8000, -74.187
1071.9000, -74.477
1072.0000, -73.974
1072.1000, -73.917
1072.2000, -74.118
1072.3000, -74.340
1072.4000, -73.919
1072.5000, -74.224
1072.6000, -73.804
1072.7000, -73.768
1072.8000, -73.411
1072.9000, -73.689
1073.0000, -74.028
1073.1000, -73.204
1073.2000, -73.707
1073.3000, -73.582
1073.4000, -73.043
1073.5000, -72.921
1073.6000, -72.316
1073.7000, -72.072
1073.8000, -71.338
1073.9000, -71.157
1074.0000, -69.505
1074.1000, -67.281
1074.2000, -65.633
1074.3000, -63.874
1074.4000, -61.710
1074.5000, -59.737
1074.6000, -58.341
1074.7000, -58.113
1074.8000, -58.267
1074.9000, -58.316
1075.0000, -58.634
1075.1000, -59.532
1075.2000, -61.109
1075.3000, -64.728
1075.4000, -67.402
1075.5000, -68.508
1075.6000, -69.303
1075.7000, -70.546
1075.8000, -71.741
1075.9000, -72.440
1076.0000, -73.246
1076.1000, -73.277
1076.2000, -73.234
1076.3000, -72.892
1076.4000, -73.327
1076.5000, -73.527
1076.6000, -73.087
1076.7000, -73.253
1076.8000, -73.817
1076.9000, -72.968
1077.0000, -73.217
1077.1000, -73.600
1077.2000, -73.265
1077.3000, -72.946
1077.4000, -72.270
1077.5000, -73.418
1077.6000, -73.033
1077.7000, -72.260
1077.8000, -73.470
1077.9000, -72.660
1078.0000, -72.584
1078.1000, -72.094
1078.2000, -72.351
1078.3000, -72.220
1078.4000, -72.284
1078.5000, -71.560
1078.6000, -71.961
1078.7000, -72.102
1078.8000, -72.751
1078.9000, -72.144
1079.0000, -72.670
1079.1000, -72.443
1079.2000, -72.988
1079.3000, -73.273
1079.4000, -72.398
1079.5000, -72.936
1079.6000, -74.122
1079.7000, -72.823
1079.8000, -72.627
1079.9000, -74.075
1080.0000, -72.211
1080.1000, -73.236
1080.2000, -73.597
1080.3000, -73.266
1080.4000, -73.203
1080.5000, -73.479
1080.6000, -73.156
1080.7000, -73.536
1080.8000, -73.153
1080.9000, -73.553
1081.0000, -73.466
1081.1000, -74.350
1081.2000, -73.078
1081.3000, -73.598
1081.4000, -73.482
1081.5000, -73.298
1081.6000, -73.573
1081.7000, -73.503
1081.8000, -73.263
1081.9000, -73.902
1082.0000, -73.450
1082.1000, -73.095
1082.2000, -73.270
1082.3000, -73.441
1082.4000, -73.913
1082.5000, -73.579
1082.6000, -73.490
1082.7000, -74.006
1082.8000, -73.690
1082.9000, -73.268
1083.0000, -73.579
1083.1000, -73.757
1083.2000, -73.443
1083.3000, -73.745
1083.4000, -73.147
1083.5000, -73.810
1083.6000, -73.247
1083.7000, -73.540
1083.8000, -73.185
1083.9000, -73.596
1084.0000, -73.523
1084.1000, -73.296
1084.2000, -73.284
1084.3000, -73.365
1084.4000, -73.406
1084.5000, -73.501
1084.6000, -73.123
1084.7000, -73.129
1084.8000, -73.247
1084.9000, -73.394
1085.0000, -73.353
1085.1000, -73.282
1085.2000, -72.953
1085.3000, -73.272
1085.4000, -73.163
1085.5000, -73.420
1085.6000, -72.734
1085.7000, -73.253
1085.8000, -73.467
1085.9000, -72.900
1086.0000, -73.113
1086.1000, -73.082
1086.2000, -73.382
1086.3000, -72.774
1086.4000, -73.483
1086.5000, -73.035
1086.6000, -72.942
1086.7000, -72.690
1086.8000, -73.181
1086.9000, -72.849
1087.0000, -72.568
1087.1000, -72.665
1087.2000, -72.982
1087.3000, -72.881
1087.4000, -72.549
1087.5000, -72.716
1087.6000, -72.469
1087.7000, -72.429
1087.8000, -72.516
1087.9000, -72.631
1088.0000, -72.497
1088.1000, -72.513
1088.2000, -72.882
1088.3000, -72.618
1088.4000, -72.246
1088.5000, -72.193
1088.6000, -72.155
1088.7000, -72.385
1088.8000, -72.155
1088.9000, -71.989
1089.0000, -72.293
1089.1000, -72.022
1089.2000, -72.020
1089.3000, -72.054
1089.4000, -72.287
1089.5000, -71.748
1089.6000, -72.015
1089.7000, -71.812
1089.8000, -71.940
1089.9000, -71.839
1090.0000, -71.563
1090.1000, -71.907
1090.2000, -71.316
1090.3000, -71.639
1090.4000, -71.599
1090.5000, -71.256
1090.6000, -71.533
1090.7000, -71.393
1090.8000, -71.310
1090.9000, -71.292
1091.0000, -71.506
1091.1000, -71.413
1091.2000, -71.107
1091.3000, -71.024
1091.4000, -70.937
1091.5000, -70.851
1091.6000, -71.188
1091.7000, -70.838
1091.8000, -70.807
1091.9000, -70.836
1092.0000, -70.602
1092.1000, -70.809
1092.2000, -70.453
1092.3000, -70.715
1092.4000, -70.575
1092.5000, -70.501
1092.6000, -70.455
1092.7000, -70.262
1092.8000, -70.364
1092.9000, -70.288
1093.0000, -70.009
1093.1000, -69.979
1093.2000, -70.199
1093.3000, -69.994
1093.4000, -69.859
1093.5000, -69.732
1093.6000, -69.831
1093.7000, -69.782
1093.8000, -69.580
1093.9000, -69.622
1094.0000, -69.505
1094.1000, -69.529
1094.2000, -69.310
1094.3000, -69.261
1094.4000, -69.309
1094.5000, -69.231
1094.6000, -69.095
1094.7000, -68.957
1094.8000, -68.852
1094.9000, -69.111
1095.0000, -68.803
1095.1000, -68.831
1095.2000, -68.542
1095.3000, -68.436
1095.4000, -68.348
1095.5000, -68.539
1095.6000, -68.579
1095.7000, -68.143
1095.8000, -68.192
1095.9000, -68.100
1096.0000, -68.066
1096.1000, -67.955
1096.2000, -67.822
1096.3000, -67.735
1096.4000, -67.783
1096.5000, -67.628
1096.6000, -67.529
1096.7000, -67.452
1096.8000, -67.172
1096.9000, -67.310
1097.0000, -67.194
1097.1000, -67.026
1097.2000, -66.910
1097.3000, -66.723
1097.4000, -66.912
1097.5000, -66.738
1097.6000, -66.583
1097.7000, -66.456
1097.8000, -66.425
1097.9000, -66.381
1098.0000, -66.292
1098.1000, -66.028
1098.2000, -66.087
1098.3000, -66.019
1098.4000, -65.874
1098.5000, -65.736
1098.6000, -65.775
1098.7000, -65.508
1098.8000, -65.693
1098.9000, -65.481
1099.0000, -65.306
1099.1000, -65.261
1099.2000, -65.139
1099.3000, -65.263
1099.4000, -65.011
1099.5000, -64.906
1099.6000, -64.775
1099.7000, -64.780
1099.8000, -64.640
1099.9000, -64.536
1100.0000, -64.475
1100.1000, -64.476
1100.2000, -64.271
1100.3000, -64.282
1100.4000, -64.117
1100.5000, -64.030
1100.6000, -63.961
1100.7000, -63.840
1100.8000, -63.752
1100.9000, -63.676
1101.0000, -63.593
1101.1000, -63.472
1101.2000, -63.337
1101.3000, -63.262
1101.4000, -63.202
1101.5000, -63.108
1101.6000, -62.974
1101.7000, -62.894
1101.8000, -62.807
1101.9000, -62.725
1102.0000, -62.612
1102.1000, -62.507
1102.2000, -62.508
1102.3000, -62.360
1102.4000, -62.230
1102.5000, -62.253
1102.6000, -62.192
1102.7000, -62.026
1102.8000, -61.926
1102.9000, -61.882
1103.0000, -61.614
1103.1000, -61.630
1103.2000, -61.544
1103.3000, -61.432
1103.4000, -61.314
1103.5000, -61.250
1103.6000, -61.081
1103.7000, -61.102
1103.8000, -60.951
1103.9000, -60.774
1104.0000, -60.747
1104.1000, -60.603
1104.2000, -60.572
1104.3000, -60.475
1104.4000, -60.304
1104.5000, -60.179
1104.6000, -60.092
1104.7000, -59.991
1104.8000, -59.860
1104.9000, -59.793
1105.0000, -59.634
1105.1000, -59.571
1105.2000, -59.471
1105.3000, -59.323
1105.4000, -59.155
1105.5000, -59.066
1105.6000, -58.928
1105.7000, -58.820
1105.8000, -58.643
1105.9000, -58.573
1106.0000, -58.426
1106.1000, -58.363
1106.2000, -58.221
1106.3000, -58.121
1106.4000, -57.984
1106.5000, -57.855
1106.6000, -57.720
1106.7000, -57.521
1106.8000, -57.483
1106.9000, -57.333
1107.0000, -57.268
1107.1000, -57.141
1107.2000, -57.000
1107.3000, -56.897
1107.4000, -56.792
1107.5000, -56.672
1107.6000, -56.545
1107.7000, -56.413
1107.8000, -56.308
1107.9000, -56.168
1108.0000, -56.140
1108.1000, -55.991
1108.2000, -55.861
1108.3000, -55.701
1108.4000, -55.728
1108.5000, -55.516
1108.6000, -55.429
1108.7000, -55.309
1108.8000, -55.269
1108.9000, -55.156
1109.0000, -55.035
1109.1000, -54.948
1109.2000, -54.826
1109.3000, -54.752
1109.4000, -54.605
1109.5000, -54.573
1109.6000, -54.468
1109.7000, -54.341
1109.8000, -54.284
1109.9000, -54.211
1110.0000, -54.107
1110.1000, -54.021
1110.2000, -53.996
1110.3000, -53.844
1110.4000, -53.848
1110.5000, -53.696
1110.6000, -53.679
1110.7000, -53.539
1110.8000, -53.479
1110.9000, -53.390
1111.0000, -53.355
1111.1000, -53.235
1111.2000, -53.116
1111.3000, -53.162
1111.4000, -52.982
1111.5000, -52.908
1111.6000, -52.835
1111.7000, -52.773
1111.8000, -52.692
1111.9000, -52.646
1112.0000, -52.500
1112.1000, -52.483
1112.2000, -52.446
1112.3000, -52.321
1112.4000, -52.282
1112.5000, -52.168
1112.6000, -52.144
1112.7000, -52.040
1112.8000, -51.943
1112.9000, -51.850
1113.0000, -51.833
1113.1000, -51.685
1113.2000, -51.649
1113.3000, -51.555
1113.4000, -51.505
1113.5000, -51.439
1113.6000, -51.369
1113.7000, -51.280
1113.8000, -51.321
1113.9000, -51.269
1114.0000, -51.156
1114.1000, -51.113
1114.2000, -51.099
1114.3000, -50.990
1114.4000, -51.017
1114.5000, -50.918
1114.6000, -50.881
1114.7000, -50.860
1114.8000, -50.827
1114.9000, -50.717
1115.0000, -50.731
1115.1000, -50.637
1115.2000, -50.603
1115.3000, -50.543
1115.4000, -50.518
1115.5000, -50.481
1115.6000, -50.402
1115.7000, -50.367
1115.8000, -50.279
1115.9000, -50.288
1116.0000, -50.177
1116.1000, -50.243
1116.2000, -50.101
1116.3000, -50.108
1116.4000, -50.033
1116.5000, -50.051
1116.6000, -49.942
1116.7000, -49.986
1116.8000, -50.014
1116.9000, -49.907
1117.0000, -49.879
1117.1000, -49.942
1117.2000, -49.902
1117.3000, -49.958
1117.4000, -49.956
1117.5000, -50.005
1117.6000, -50.044
1117.7000, -50.154
1117.8000, -50.303
1117.9000, -50.320
1118.0000, -50.418
1118.1000, -50.447
1118.2000, -50.576
1118.3000, -50.719
1118.4000, -50.845
1118.5000, -50.984
1118.6000, -51.173
1118.7000, -51.269
1118.8000, -51.403
1118.9000, -51.511
1119.0000, -51.661
1119.1000, -51.846
1119.2000, -51.972
1119.3000, -52.177
1119.4000, -52.316
1119.5000, -52.423
1119.6000, -52.602
1119.7000, -52.789
1119.8000, -52.848
1119.9000, -53.127
1120.0000, -53.268
1120.1000, -53.350
1120.2000, -53.467
1120.3000, -53.639
1120.4000, -53.744
1120.5000, -53.858
1120.6000, -53.982
1120.7000, -54.094
1120.8000, -54.125
1120.9000, -54.231
1121.0000, -54.381
1121.1000, -54.433
1121.2000, -54.386
1121.3000, -54.449
1121.4000, -54.227
1121.5000, -54.390
1121.6000, -54.320
1121.7000, -54.295
1121.8000, -54.398
1121.9000, -54.217
1122.0000, -54.115
1122.1000, -54.125
1122.2000, -53.954
1122.3000, -53.877
1122.4000, -53.792
1122.5000, -53.867
1122.6000, -53.770
1122.7000, -53.810
1122.8000, -53.733
1122.9000, -53.705
1123.0000, -53.856
1123.1000, -54.002
1123.2000, -53.903
1123.3000, -54.052
1123.4000, -54.164
1123.5000, -54.445
1123.6000, -54.815
1123.7000, -54.935
1123.8000, -55.341
1123.9000, -55.557
1124.0000, -55.918
1124.1000, -56.397
1124.2000, -56.809
1124.3000, -57.314
1124.4000, -57.710
1124.5000, -58.228
1124.6000, -58.746
1124.7000, -59.359
1124.8000, -59.801
1124.9000, -60.528
1125.0000, -60.927
1125.1000, -61.570
1125.2000, -62.135
1125.3000, -62.913
1125.4000, -63.484
1125.5000, -64.102
1125.6000, -64.752
1125.7000, -65.386
1125.8000, -65.845
1125.9000, -66.457
1126.0000, -66.975
1126.1000, -67.741
1126.2000, -68.149
1126.3000, -68.608
1126.4000, -69.120
1126.5000, -70.023
1126.6000, -69.905
1126.7000, -70.779
1126.8000, -71.052
1126.9000, -72.245
1127.0000, -72.367
1127.1000, -72.588
1127.2000, -73.043
1127.3000, -73.334
1127.4000, -73.705
1127.5000, -73.945
1127.6000, -74.861
1127.7000, -74.474
1127.8000, -74.573
1127.9000, -74.332
1128.0000, -75.104
1128.1000, -76.352
1128.2000, -75.944
1128.3000, -75.688
1128.4000, -76.491
1128.5000, -76.317
1128.6000, -75.477
1128.7000, -76.326
1128.8000, -77.667
1128.9000, -77.443
1129.0000, -76.065
1129.1000, -77.187
1129.2000, -77.308
1129.3000, -78.280
1129.4000, -79.268
1129.5000, -77.868
1129.6000, -78.898
1129.7000, -76.631
1129.8000, -77.465
1129.9000, -81.790
1130.0000, -77.593
1130.1000, -78.023
1130.2000, -79.684
1130.3000, -78.930
1130.4000, -79.408
1130.5000, -78.618
1130.6000, -77.883
1130.7000, -78.619
1130.8000, -78.258
1130.9000, -79.382
1131.0000, -79.543
1131.1000, -78.313
1131.2000, -79.296
1131.3000, -78.784
1131.4000, -80.737
1131.5000, -78.071
1131.6000, -77.899
1131.7000, -79.795
1131.8000, -80.113
1131.9000, -80.586
1132.0000, -78.553
1132.1000, -78.365
1132.2000, -79.632
1132.3000, -78.935
1132.4000, -79.868
1132.5000, -79.777
1132.6000, -80.059
1132.7000, -78.657
1132.8000, -78.543
1132.9000, -80.415
1133.0000, -81.176
1133.1000, -78.749
1133.2000, -80.323
1133.3000, -79.839
1133.4000, -79.064
1133.5000, -80.165
1133.6000, -78.508
1133.7000, -80.332
1133.8000, -79.591
1133.9000, -79.508
1134.0000, -79.368
1134.1000, -79.356
1134.2000, -80.368
1134.3000, -78.187
1134.4000, -79.753
1134.5000, -79.018
1134.6000, -79.657
1134.7000, -83.333
1134.8000, -78.220
1134.9000, -80.023
1135.0000, -79.653
1135.1000, -79.137
1135.2000, -78.299
1135.3000, -77.302
1135.4000, -79.208
1135.5000, -81.345
1135.6000, -80.099
1135.7000, -80.026
1135.8000, -78.932
1135.9000, -79.025
1136.0000, -78.599
1136.1000, -78.785
1136.2000, -79.516
1136.3000, -78.178
1136.4000, -77.744
1136.5000, -78.854
1136.6000, -78.963
1136.7000, -78.198
1136.8000, -78.424
1136.9000, -78.347
1137.0000, -79.054
1137.1000, -79.231
1137.2000, -77.867
1137.3000, -78.544
1137.4000, -78.244
1137.5000, -79.070
1137.6000, -78.576
1137.7000, -78.332
1137.8000, -77.704
1137.9000, -79.711
1138.0000, -79.217
1138.1000, -78.837
1138.2000, -77.854
1138.3000, -78.362
1138.4000, -78.929
1138.5000, -78.453
1138.6000, -79.376
1138.7000, -77.528
1138.8000, -76.881
1138.9000, -80.820
1139.0000, -90.054
1139.1000, -77.557
1139.2000, -79.421
1139.3000, -81.520
1139.4000, -83.270
1139.5000, -80.279
1139.6000, -79.454
1139.7000, -78.433
1139.8000, -81.923
1139.9000, -80.400
1140.0000, -80.497
1140.1000, -81.686
1140.2000, -78.482
1140.3000, -78.634
1140.4000, -84.765
1140.5000, -80.079
1140.6000, -83.382
1140.7000, -79.959
1140.8000, -80.062
1140.9000, -81.897
1141.0000, -79.705
1141.1000, -84.874
1141.2000, -79.993
1141.3000, -83.152
1141.4000, -81.048
1141.5000,-101.436
1141.6000, -81.893
1141.7000, -80.380
1141.8000, -82.618
1141.9000, -83.577
1142.0000, -84.030
1142.1000, -79.845
1142.2000, -81.832
1142.3000, -80.577
1142.4000, -81.481
1142.5000, -83.518
1142.6000,-210.000
1142.7000, -79.686
1142.8000, -93.771
1142.9000, -80.689
1143.0000, -81.325
1143.1000, -81.130
1143.2000, -83.545
1143.3000, -79.360
1143.4000, -84.802
1143.5000,-210.000
1143.6000, -79.665
1143.7000, -89.379
1143.8000, -90.566
1143.9000, -80.886
1144.0000, -96.608
1144.1000, -80.933
1144.2000, -84.893
1144.3000,-210.000
1144.4000, -79.854
1144.5000,-101.346
1144.6000, -81.367
1144.7000,-210.000
1144.8000, -82.342
1144.9000, -84.653
1145.0000, -82.570
1145.1000, -81.732
1145.2000, -83.562
1145.3000, -85.829
1145.4000, -81.779
1145.5000, -80.382
1145.6000, -81.153
1145.7000,-210.000
1145.8000, -81.308
1145.9000, -84.066
1146.0000, -86.872
1146.1000, -82.148
1146.2000, -88.873
1146.3000, -80.547
1146.4000, -85.598
1146.5000, -82.733
1146.6000, -83.402
1146.7000, -81.741
1146.8000, -81.963
1146.9000, -82.615
1147.0000, -84.092
1147.1000, -82.246
1147.2000, -87.680
1147.3000, -89.307
1147.4000, -79.597
1147.5000, -91.437
1147.6000, -83.985
1147.7000, -83.086
1147.8000, -82.398
1147.9000, -81.062
1148.0000, -82.261
1148.1000, -83.701
1148.2000, -79.772
1148.3000, -81.468
1148.4000, -84.973
1148.5000, -86.740
1148.6000, -83.220
1148.7000, -83.719
1148.8000, -86.047
1148.9000, -81.937
1149.0000, -81.997
1149.1000, -81.879
1149.2000, -80.921
1149.3000, -82.682
1149.4000, -84.070
1149.5000, -85.644
1149.6000, -83.682
1149.7000, -87.615
1149.8000, -83.865
1149.9000, -80.964
1150.0000, -81.500
1150.1000, -82.473
1150.2000, -82.716
1150.3000, -83.711
1150.4000, -85.281
1150.5000, -85.791
1150.6000, -83.324
1150.7000, -82.863
1150.8000, -80.929
1150.9000, -86.589
1151.0000, -81.642
1151.1000, -79.611
1151.2000, -82.566
1151.3000,-210.000
1151.4000, -90.552
1151.5000, -79.979
1151.6000, -81.152
1151.7000,-210.000
1151.8000, -83.680
1151.9000, -82.514
1152.0000, -82.268
1152.1000, -84.918
1152.2000, -82.125
1152.3000, -84.142
1152.4000, -84.998
1152.5000, -88.389
1152.6000, -80.812
1152.7000, -82.242
1152.8000,-101.951
1152.9000, -79.937
1153.0000, -90.291
1153.1000, -83.168
1153.2000, -82.610
1153.3000, -84.968
1153.4000, -84.551
1153.5000, -84.764
1153.6000, -82.281
1153.7000, -83.890
1153.8000, -81.558
1153.9000, -82.409
1154.0000, -87.595
1154.1000, -82.810
1154.2000, -85.769
1154.3000, -85.810
1154.4000, -81.866
1154.5000, -80.181
1154.6000, -80.358
1154.7000,-210.000
1154.8000, -83.828
1154.9000, -82.610
1155.0000, -88.002
1155.1000, -81.526
1155.2000, -85.448
1155.3000, -86.089
1155.4000, -87.061
1155.5000, -82.723
1155.6000, -84.552
1155.7000, -83.842
1155.8000, -85.204
1155.9000, -83.301
1156.0000, -82.922
1156.1000, -81.218
1156.2000, -85.157
1156.3000, -83.607
1156.4000, -83.029
1156.5000, -82.068
1156.6000, -84.693
1156.7000, -82.760
1156.8000, -83.522
1156.9000, -83.124
1157.0000, -82.909
1157.1000, -87.567
1157.2000, -83.900
1157.3000, -83.367
1157.4000, -82.696
1157.5000, -80.520
1157.6000, -84.244
1157.7000, -85.278
1157.8000, -81.991
1157.9000, -86.165
1158.0000, -81.579
1158.1000, -83.711
1158.2000, -84.444
1158.3000, -82.418
1158.4000, -84.376
1158.5000, -83.159
1158.6000, -86.430
1158.7000, -84.489
1158.8000, -83.320
1158.9000, -81.977
1159.0000, -83.820
1159.1000, -88.502
1159.2000, -82.567
1159.3000, -90.057
1159.4000, -82.937
1159.5000, -85.778
1159.6000, -84.473
1159.7000, -82.768
1159.8000, -84.892
1159.9000, -82.554
1160.0000, -83.327
1160.1000, -80.727
1160.2000, -85.275
1160.3000, -83.556
1160.4000, -83.622
1160.5000, -82.975
1160.6000, -83.382
1160.7000, -81.735
1160.8000, -83.781
1160.9000, -82.152
1161.0000, -82.521
1161.1000, -83.819
1161.2000, -82.865
1161.3000, -82.042
1161.4000, -81.726
1161.5000, -84.106
1161.6000, -81.731
1161.7000, -83.504
1161.8000, -82.237
1161.9000, -84.146
1162.0000, -82.714
1162.1000, -82.166
1162.2000, -81.454
1162.3000, -84.518
1162.4000, -79.620
1162.5000, -89.691
1162.6000, -82.393
1162.7000, -84.890
1162.8000, -82.888
1162.9000, -83.343
1163.0000, -81.960
1163.1000, -81.352
1163.2000, -82.429
1163.3000, -82.466
1163.4000, -81.817
1163.5000, -81.025
1163.6000, -84.346
1163.7000, -84.671
1163.8000, -79.508
1163.9000, -80.122
1164.0000, -85.882
1164.1000, -82.095
1164.2000, -80.853
1164.3000, -80.184
1164.4000, -85.518
1164.5000, -88.805
1164.6000, -82.182
1164.7000, -80.758
1164.8000, -84.405
1164.9000, -82.122
1165.0000, -81.385
1165.1000, -80.016
1165.2000, -83.317
1165.3000, -82.648
1165.4000, -82.432
1165.5000, -82.387
1165.6000, -81.090
1165.7000, -82.887
1165.8000, -83.527
1165.9000, -81.935
1166.0000, -79.886
1166.1000,-210.000
1166.2000, -81.010
1166.3000, -82.692
1166.4000, -82.614
1166.5000, -84.047
1166.6000, -83.338
1166.7000, -82.663
1166.8000, -81.052
1166.9000, -80.068
1167.0000, -86.450
1167.1000, -85.869
1167.2000, -79.614
1167.3000,-210.000
1167.4000, -84.334
1167.5000, -82.712
1167.6000, -82.703
1167.7000, -81.733
1167.8000, -80.325
1167.9000, -83.444
1168.0000, -83.065
1168.1000, -83.854
1168.2000, -82.374
1168.3000, -83.164
1168.4000, -81.609
1168.5000, -82.638
1168.6000, -82.827
1168.7000, -80.440
1168.8000, -83.125
1168.9000, -84.907
1169.0000, -83.817
1169.1000, -81.994
1169.2000, -80.454
1169.3000, -85.706
1169.4000, -95.415
1169.5000, -80.609
1169.6000, -85.303
1169.7000, -81.491
1169.8000, -96.058
1169.9000, -84.203
1170.0000, -83.473
1170.1000, -85.761
1170.2000, -84.934
1170.3000, -85.042
1170.4000, -81.276
1170.5000, -81.538
1170.6000, -82.538
1170.7000, -86.377
1170.8000, -83.874
1170.9000, -80.823
1171.0000, -88.631
1171.1000, -82.620
1171.2000, -81.861
1171.3000, -85.695
1171.4000, -80.402
1171.5000, -81.413
1171.6000, -90.399
1171.7000, -87.769
1171.8000, -79.693
1171.9000, -84.980
1172.0000, -85.656
1172.1000, -85.513
1172.2000, -86.759
1172.3000, -83.965
1172.4000, -81.252
1172.5000, -82.975
1172.6000, -85.516
1172.7000, -83.465
1172.8000, -85.528
1172.9000, -84.035
1173.0000, -82.288
1173.1000,-210.000
1173.2000, -87.118
1173.3000, -82.159
1173.4000, -80.603
1173.5000, -89.515
1173.6000, -87.306
1173.7000, -91.063
1173.8000, -84.095
1173.9000, -91.186
1174.0000, -86.136
1174.1000, -85.297
1174.2000, -81.311
1174.3000, -86.184
1174.4000,-102.398
1174.5000, -83.190
1174.6000, -81.505
1174.7000, -84.753
1174.8000, -82.929
1174.9000, -82.402
1175.0000, -88.423
1175.1000, -83.211
1175.2000, -84.324
1175.3000, -85.195
1175.4000, -82.494
1175.5000, -88.443
1175.6000, -79.297
1175.7000, -81.977
1175.8000, -83.166
1175.9000, -84.643
1176.0000, -79.022
1176.1000, -90.168
1176.2000,-210.000
1176.3000, -84.632
1176.4000, -84.986
1176.5000, -86.480
1176.6000, -87.593
1176.7000, -81.699
1176.8000, -90.743
1176.9000, -86.243
1177.0000, -91.851
1177.1000, -81.932
1177.2000, -82.868
1177.3000, -91.228
1177.4000, -88.207
1177.5000, -81.741
1177.6000, -82.553
1177.7000,-210.000
1177.8000, -85.411
1177.9000, -81.822
1178.0000, -82.425
1178.1000, -82.188
1178.2000, -81.990
1178.3000, -85.813
1178.4000, -84.108
1178.5000, -84.388
1178.6000, -83.170
1178.7000, -85.435
1178.8000, -84.364
1178.9000, -84.898
1179.0000, -83.960
1179.1000, -84.167
1179.2000, -87.237
1179.3000, -82.997
1179.4000, -83.669
1179.5000, -82.471
1179.6000, -82.294
1179.7000, -83.205
1179.8000, -90.551
1179.9000, -92.366
1180.0000, -83.512
1180.1000, -83.761
1180.2000, -83.449
1180.3000, -82.967
1180.4000, -81.731
1180.5000, -83.443
1180.6000, -83.253
1180.7000, -83.921
1180.8000, -90.334
1180.9000, -85.514
1181.0000, -84.305
1181.1000, -83.926
1181.2000, -84.316
1181.3000, -82.040
1181.4000,-210.000
1181.5000, -81.063
1181.6000, -88.239
1181.7000, -83.303
1181.8000, -82.892
1181.9000, -81.675
1182.0000, -84.491
1182.1000, -83.223
1182.2000,-210.000
1182.3000, -85.285
1182.4000, -83.892
1182.5000, -86.013
1182.6000, -84.508
1182.7000, -81.970
1182.8000, -84.016
1182.9000, -92.073
1183.0000, -83.846
1183.1000, -82.086
1183.2000, -82.849
1183.3000, -85.210
1183.4000, -82.901
1183.5000, -87.097
1183.6000, -81.203
1183.7000, -85.842
1183.8000, -81.933
1183.9000,-210.000
1184.0000, -84.203
1184.1000, -86.556
1184.2000, -82.461
1184.3000, -83.317
1184.4000, -84.483
1184.5000, -84.675
1184.6000, -86.163
1184.7000, -82.054
1184.8000, -79.866
1184.9000, -81.042
1185.0000,-210.000
1185.1000,-210.000
1185.2000, -82.291
1185.3000, -84.001
1185.4000, -85.841
1185.5000, -81.546
1185.6000, -86.066
1185.7000, -85.302
1185.8000, -82.924
1185.9000, -81.879
1186.0000, -82.514
1186.1000, -82.948
1186.2000, -86.811
1186.3000, -82.339
1186.4000, -83.403
1186.5000, -84.645
1186.6000, -82.586
1186.7000, -82.652
1186.8000, -82.875
1186.9000, -81.514
1187.0000, -84.521
1187.1000,-108.171
1187.2000, -85.654
1187.3000, -87.442
1187.4000, -82.585
1187.5000, -82.232
1187.6000, -83.781
1187.7000, -85.256
1187.8000, -83.361
1187.9000, -82.911
1188.0000, -79.955
1188.1000, -82.411
1188.2000,-210.000
1188.3000, -81.729
1188.4000, -92.667
1188.5000, -81.343
1188.6000, -80.763
1188.7000, -85.049
1188.8000, -85.323
1188.9000, -83.898
1189.0000, -82.519
1189.1000, -82.881
1189.2000, -82.095
1189.3000, -82.797
1189.4000, -85.055
1189.5000, -79.672
1189.6000, -79.749
1189.7000, -85.652
1189.8000,-210.000
1189.9000, -79.237
1190.0000,-210.000
1190.1000, -78.098
1190.2000, -89.210
1190.3000, -85.691
1190.4000, -80.680
1190.5000, -83.744
1190.6000, -81.889
1190.7000, -82.006
1190.8000, -84.171
1190.9000, -82.786
1191.0000, -81.415
1191.1000, -82.482
1191.2000, -83.112
1191.3000, -84.140
1191.4000, -81.388
1191.5000, -81.748
1191.6000,-210.000
1191.7000, -80.725
1191.8000, -79.732
1191.9000, -82.100
1192.0000, -83.267
1192.1000, -78.310
1192.2000, -83.455
1192.3000, -83.992
1192.4000, -83.555
1192.5000, -84.656
1192.6000, -80.162
1192.7000, -82.058
1192.8000, -78.879
1192.9000, -84.998
1193.0000, -96.096
1193.1000, -80.648
1193.2000, -81.223
1193.3000, -82.423
1193.4000,-210.000
1193.5000, -77.529
1193.6000,-210.000
1193.7000, -79.127
1193.8000, -82.072
1193.9000, -82.584
1194.0000, -89.224
1194.1000, -81.252
1194.2000, -80.663
1194.3000, -81.603
1194.4000, -83.712
1194.5000, -84.550
1194.6000, -83.281
1194.7000, -85.206
1194.8000, -80.083
1194.9000, -79.835
1195.0000, -82.966
1195.1000, -93.245
1195.2000, -87.051
1195.3000, -82.409
1195.4000, -94.755
1195.5000, -78.831
1195.6000, -83.861
1195.7000,-210.000
1195.8000, -80.372
1195.9000, -86.896
1196.0000, -80.805
1196.1000, -82.796
1196.2000, -81.280
1196.3000, -83.135
1196.4000, -83.638
1196.5000, -79.954
1196.6000, -84.266
1196.7000, -81.968
1196.8000, -85.393
1196.9000, -84.603
1197.0000, -82.760
1197.1000, -84.650
1197.2000, -87.046
1197.3000, -81.902
1197.4000, -83.212
1197.5000, -86.345
1197.6000,-210.000
1197.7000, -81.294
1197.8000, -81.783
1197.9000, -83.297
1198.0000, -81.949
1198.1000, -81.199
1198.2000, -83.947
1198.3000, -87.816
1198.4000,-210.000
1198.5000, -79.241
1198.6000, -83.191
1198.7000, -84.412
1198.8000, -81.013
1198.9000, -84.505
1199.0000, -82.333
1199.1000, -85.421
1199.2000, -82.118
1199.3000, -86.116
1199.4000, -80.761
1199.5000, -81.807
1199.6000, -88.746
1199.7000, -83.251
1199.8000, -84.540
1199.9000, -81.082
1200.0000, -82.210
1200.1000, -88.915
1200.2000, -81.406
1200.3000, -82.473
1200.4000, -85.875
1200.5000, -87.023
1200.6000, -82.497
1200.7000, -83.466
1200.8000, -85.489
1200.9000, -79.492
1201.0000, -88.405
1201.1000, -79.991
1201.2000, -84.972
1201.3000,-210.000
1201.4000,-210.000
1201.5000, -81.758
1201.6000, -82.248
1201.7000, -82.483
1201.8000, -80.381
1201.9000, -86.558
1202.0000, -87.745
1202.1000, -82.075
1202.2000, -88.281
1202.3000, -79.641
1202.4000, -82.577
1202.5000,-210.000
1202.6000, -83.623
1202.7000, -83.198
1202.8000, -83.945
1202.9000,-210.000
1203.0000, -80.978
1203.1000, -85.708
1203.2000, -84.109
1203.3000, -86.594
1203.4000, -85.488
1203.5000, -81.669
1203.6000, -83.584
1203.7000, -82.968
1203.8000, -85.546
1203.9000, -86.125
1204.0000, -82.323
1204.1000, -97.049
1204.2000, -83.163
1204.3000, -89.032
1204.4000, -83.008
1204.5000, -80.267
1204.6000, -90.965
1204.7000, -83.011
1204.8000, -85.034
1204.9000,-210.000
1205.0000, -81.483
1205.1000, -81.737
1205.2000, -87.123
1205.3000, -86.056
1205.4000, -84.565
1205.5000, -85.859
1205.6000, -83.493
1205.7000, -81.169
1205.8000, -87.615
1205.9000, -84.717
1206.0000,-210.000
1206.1000, -81.656
1206.2000, -84.344
1206.3000, -84.150
1206.4000, -84.455
1206.5000, -87.269
1206.6000, -82.167
1206.7000, -84.560
1206.8000, -82.754
1206.9000, -86.309
1207.0000, -81.300
1207.1000, -90.089
1207.2000, -87.231
1207.3000, -84.444
1207.4000, -81.974
1207.5000, -84.491
1207.6000, -83.741
1207.7000, -85.481
1207.8000, -81.738
1207.9000, -82.805
1208.0000, -85.473
1208.1000, -84.652
1208.2000, -83.039
1208.3000, -84.274
1208.4000, -86.834
1208.5000, -84.421
1208.6000, -89.720
1208.7000, -82.580
1208.8000, -81.120
1208.9000, -91.634
1209.0000, -83.604
1209.1000, -84.022
1209.2000, -82.426
1209.3000, -85.251
1209.4000, -83.827
1209.5000, -81.479
1209.6000, -82.386
1209.7000,-210.000
1209.8000, -81.006
1209.9000,-210.000
1210.0000, -80.044
1210.1000,-101.602
1210.2000,-210.000
1210.3000, -82.940
1210.4000, -84.495
1210.5000,-210.000
1210.6000, -85.838
1210.7000, -85.726
1210.8000, -87.052
1210.9000, -86.981
1211.0000, -83.528
1211.1000, -90.423
1211.2000, -83.181
1211.3000, -84.679
1211.4000, -82.907
1211.5000, -84.530
1211.6000, -82.765
1211.7000, -83.560
1211.8000,-210.000
1211.9000, -88.173
1212.0000, -82.954
1212.1000, -86.322
1212.2000, -82.307
1212.3000, -83.278
1212.4000, -92.631
1212.5000, -94.477
1212.6000, -84.009
1212.7000, -85.043
1212.8000, -84.036
1212.9000, -82.119
1213.0000, -86.509
1213.1000, -86.515
1213.2000, -83.999
1213.3000, -83.356
1213.4000, -83.868
1213.5000, -84.897
1213.6000, -85.307
1213.7000, -81.958
1213.8000, -88.109
1213.9000, -83.311
1214.0000,-210.000
1214.1000, -83.516
1214.2000, -85.284
1214.3000, -87.589
1214.4000, -86.122
1214.5000, -82.087
1214.6000, -88.514
1214.7000, -86.161
1214.8000,-210.000
1214.9000, -84.409
1215.0000, -86.276
1215.1000, -82.764
1215.2000, -85.602
1215.3000, -90.268
1215.4000, -90.218
1215.5000, -84.852
1215.6000, -85.821
1215.7000, -83.224
1215.8000, -85.060
1215.9000, -81.794
1216.0000, -84.198
1216.1000, -82.762
1216.2000, -84.000
1216.3000, -82.120
1216.4000, -82.158
1216.5000, -82.055
1216.6000,-210.000
1216.7000, -84.245
1216.8000, -81.173
1216.9000, -90.426
1217.0000, -80.134
1217.1000, -90.018
1217.2000, -84.790
1217.3000, -86.555
1217.4000, -84.699
1217.5000, -85.726
1217.6000, -88.156
1217.7000, -89.060
1217.8000, -80.742
1217.9000,-210.000
1218.0000, -82.390
1218.1000,-210.000
1218.2000, -82.577
1218.3000, -83.982
1218.4000, -81.057
1218.5000, -83.372
1218.6000, -88.354
1218.7000,-210.000
1218.8000,-210.000
1218.9000, -85.752
1219.0000, -84.315
1219.1000, -84.585
1219.2000, -82.123
1219.3000, -83.041
1219.4000, -83.293
1219.5000, -83.560
1219.6000, -90.065
1219.7000, -86.313
1219.8000, -83.431
1219.9000, -83.308
1220.0000, -84.287
1220.1000, -86.421
1220.2000, -80.934
1220.3000, -83.676
1220.4000, -87.534
1220.5000, -85.926
1220.6000, -87.800
1220.7000, -88.556
1220.8000, -80.949
1220.9000, -81.238
1221.0000, -81.673
1221.1000, -84.037
1221.2000, -84.991
1221.3000,-210.000
1221.4000, -79.960
1221.5000, -81.843
1221.6000,-210.000
1221.7000, -81.247
1221.8000, -82.946
1221.9000, -82.266
1222.0000, -82.815
1222.1000, -84.463
1222.2000,-210.000
1222.3000, -81.917
1222.4000, -86.945
1222.5000, -85.921
1222.6000, -85.775
1222.7000,-210.000
1222.8000, -83.325
1222.9000, -79.647
1223.0000,-210.000
1223.1000, -81.632
1223.2000, -84.658
1223.3000, -88.978
1223.4000, -84.952
1223.5000, -87.741
1223.6000, -82.891
1223.7000, -85.420
1223.8000, -80.530
1223.9000, -89.585
1224.0000, -87.182
1224.1000, -85.011
1224.2000, -82.788
1224.3000, -84.815
1224.4000, -85.794
1224.5000, -82.279
1224.6000, -84.214
1224.7000, -85.714
1224.8000, -84.654
1224.9000, -83.225
1225.0000, -86.400
1225.1000, -82.019
1225.2000, -89.269
1225.3000, -83.566
1225.4000,-210.000
1225.5000, -81.989
1225.6000, -87.153
1225.7000, -81.404
1225.8000,-210.000
1225.9000,-210.000
1226.0000, -88.758
1226.1000, -79.969
1226.2000, -84.671
1226.3000, -98.144
1226.4000, -82.999
1226.5000, -95.148
1226.6000, -85.907
1226.7000, -86.259
1226.8000, -81.280
1226.9000, -82.686
1227.0000, -82.637
1227.1000, -83.234
1227.2000, -82.649
1227.3000, -84.208
1227.4000, -86.173
1227.5000, -97.310
1227.6000, -87.099
1227.7000, -80.874
1227.8000, -90.079
1227.9000, -83.509
1228.0000, -86.770
1228.1000, -82.504
1228.2000,-210.000
1228.3000, -86.204
1228.4000, -81.671
1228.5000, -84.936
1228.6000, -84.917
1228.7000, -88.465
1228.8000, -80.717
1228.9000, -83.484
1229.0000,-210.000
1229.1000, -82.422
1229.2000, -84.895
1229.3000,-210.000
1229.4000, -79.369
1229.5000, -81.884
1229.6000,-210.000
1229.7000, -80.871
1229.8000,-210.000
1229.9000, -80.915
1230.0000, -92.278
1230.1000, -86.660
1230.2000, -80.279
1230.3000, -90.956
1230.4000, -83.838
1230.5000, -81.878
1230.6000, -83.767
1230.7000, -82.747
1230.8000,-210.000
1230.9000, -82.198
1231.0000, -85.240
1231.1000,-210.000
1231.2000, -80.584
1231.3000, -84.552
1231.4000, -84.569
1231.5000, -83.923
1231.6000, -83.405
1231.7000, -82.823
1231.8000, -84.872
1231.9000, -83.548
1232.0000, -92.732
1232.1000, -81.611
1232.2000,-210.000
1232.3000, -79.226
1232.4000, -93.841
1232.5000, -84.755
1232.6000, -91.215
1232.7000, -91.503
1232.8000, -93.518
1232.9000, -84.157
1233.0000, -83.144
1233.1000,-210.000
1233.2000, -81.045
1233.3000, -86.564
1233.4000, -84.217
1233.5000, -90.225
1233.6000, -85.287
1233.7000,-110.638
1233.8000, -90.300
1233.9000, -86.010
1234.0000, -85.346
1234.1000, -82.034
1234.2000, -81.643
1234.3000, -84.575
1234.4000, -81.388
1234.5000, -93.313
1234.6000, -82.473
1234.7000, -84.229
1234.8000, -83.967
1234.9000, -84.112
1235.0000, -86.109
1235.1000, -83.040
1235.2000, -91.749
1235.3000, -82.732
1235.4000,-210.000
1235.5000, -83.113
1235.6000,-210.000
1235.7000, -82.561
1235.8000, -84.218
1235.9000, -88.830
1236.0000, -84.165
1236.1000, -91.160
1236.2000, -83.404
1236.3000, -84.929
1236.4000, -84.734
1236.5000, -81.635
1236.6000, -84.005
1236.7000, -83.695
1236.8000, -85.203
1236.9000,-210.000
1237.0000, -83.671
1237.1000, -83.127
1237.2000,-210.000
1237.3000, -83.715
1237.4000, -85.396
1237.5000, -90.805
1237.6000, -84.547
1237.7000, -87.703
1237.8000, -84.558
1237.9000, -83.953
1238.0000, -83.630
1238.1000, -96.701
1238.2000, -89.054
1238.3000, -84.198
1238.4000, -84.539
1238.5000, -85.216
1238.6000, -81.903
1238.7000, -92.098
1238.8000, -82.756
1238.9000,-210.000
1239.0000, -83.943
1239.1000, -83.880
1239.2000, -85.657
1239.3000, -88.973
1239.4000, -81.187
1239.5000, -85.509
1239.6000, -84.594
1239.7000, -85.609
1239.8000, -84.240
1239.9000, -87.012
1240.0000, -82.314
1240.1000, -82.854
1240.2000, -85.837
1240.3000, -90.931
1240.4000, -84.652
1240.5000, -85.910
1240.6000, -85.044
1240.7000, -83.056
1240.8000, -84.668
1240.9000, -90.951
1241.0000, -84.281
1241.1000, -84.406
1241.2000, -84.490
1241.3000, -83.031
1241.4000, -85.073
1241.5000, -93.479
1241.6000, -84.048
1241.7000, -84.052
1241.8000, -82.963
1241.9000, -85.185
1242.0000, -87.124
1242.1000, -83.107
1242.2000, -84.469
1242.3000, -86.652
1242.4000, -82.973
1242.5000, -86.900
1242.6000, -90.290
1242.7000, -83.386
1242.8000, -83.820
1242.9000, -84.834
1243.0000, -80.170
1243.1000,-210.000
1243.2000, -79.488
1243.3000,-210.000
1243.4000, -79.481
1243.5000, -83.389
1243.6000, -88.598
1243.7000, -83.431
1243.8000,-210.000
1243.9000, -81.129
1244.0000, -97.084
1244.1000, -90.345
1244.2000, -82.540
1244.3000, -83.368
1244.4000, -82.766
1244.5000, -88.024
1244.6000, -85.999
1244.7000, -81.760
1244.8000, -81.992
1244.9000, -83.412
1245.0000, -85.989
1245.1000, -81.744
1245.2000, -81.341
1245.3000,-110.735
1245.4000, -83.434
1245.5000, -86.038
1245.6000, -82.044
1245.7000,-210.000
1245.8000, -87.988
1245.9000, -81.138
1246.0000, -89.561
1246.1000, -84.344
1246.2000, -86.910
1246.3000, -81.738
1246.4000, -83.157
1246.5000, -92.132
1246.6000, -81.136
1246.7000, -91.328
1246.8000, -81.685
1246.9000, -87.935
1247.0000, -86.300
1247.1000, -83.555
1247.2000, -90.318
1247.3000,-210.000
1247.4000, -83.093
1247.5000, -84.949
1247.6000, -88.778
1247.7000, -86.213
1247.8000, -83.645
1247.9000, -82.997
1248.0000, -82.105
1248.1000, -85.196
1248.2000, -84.595
1248.3000, -85.245
1248.4000, -82.745
1248.5000, -80.807
1248.6000, -83.135
1248.7000,-210.000
1248.8000, -93.143
1248.9000, -84.443
1249.0000, -82.954
1249.1000, -82.984
1249.2000, -81.663
1249.3000, -90.114
1249.4000, -84.220
1249.5000, -84.717
1249.6000, -83.628
1249.7000, -83.350
1249.8000, -83.480
1249.9000, -91.958
1250.0000, -81.492
1250.1000, -87.716
1250.2000, -84.615
1250.3000, -82.970
1250.4000, -84.938
1250.5000, -87.478
1250.6000, -83.659
1250.7000, -83.597
1250.8000, -82.883
1250.9000, -82.403
1251.0000, -89.752
1251.1000, -86.489
1251.2000, -88.460
1251.3000, -87.262
1251.4000, -84.122
1251.5000, -82.520
1251.6000, -98.330
1251.7000, -82.231
1251.8000, -83.347
1251.9000, -83.475
1252.0000, -84.866
1252.1000, -82.847
1252.2000, -87.205
1252.3000, -84.292
1252.4000, -88.695
1252.5000, -85.663
1252.6000, -85.176
1252.7000, -81.671
1252.8000, -85.841
1252.9000, -87.000
1253.0000, -82.401
1253.1000, -81.288
1253.2000, -92.248
1253.3000, -87.762
1253.4000, -82.930
1253.5000, -88.930
1253.6000, -81.753
1253.7000, -88.468
1253.8000, -89.119
1253.9000, -83.517
1254.0000, -85.425
1254.1000, -80.779
1254.2000, -90.549
1254.3000, -94.702
1254.4000, -82.099
1254.5000, -90.595
1254.6000, -80.096
1254.7000, -85.084
1254.8000,-210.000
1254.9000, -83.891
1255.0000, -83.792
1255.1000, -84.857
1255.2000, -90.619
1255.3000, -83.463
1255.4000,-210.000
1255.5000, -82.535
1255.6000, -83.566
1255.7000, -92.431
1255.8000, -84.399
1255.9000, -85.140
1256.0000, -84.442
1256.1000, -83.870
1256.2000, -85.904
1256.3000, -82.389
1256.4000, -85.638
1256.5000, -82.259
1256.6000, -85.249
1256.7000, -84.442
1256.8000, -83.875
1256.9000, -83.038
1257.0000, -85.032
1257.1000, -85.827
1257.2000, -84.336
1257.3000, -88.282
1257.4000, -83.594
1257.5000, -83.801
1257.6000, -86.589
1257.7000, -83.001
1257.8000, -86.009
1257.9000, -84.497
1258.0000, -80.535
1258.1000, -90.037
1258.2000, -85.373
1258.3000, -83.194
1258.4000, -81.196
1258.5000, -91.813
1258.6000, -98.247
1258.7000, -88.362
1258.8000, -80.066
1258.9000, -86.175
1259.0000, -88.365
1259.1000, -87.226
1259.2000, -83.740
1259.3000, -86.358
1259.4000, -84.063
1259.5000, -91.377
1259.6000, -85.967
1259.7000, -88.195
1259.8000, -82.872
1259.9000, -85.949
1260.0000, -84.764
1260.1000, -82.249
1260.2000, -83.447
1260.3000, -83.367
1260.4000, -81.113
1260.5000, -83.234
1260.6000, -85.565
1260.7000,-110.151
1260.8000, -83.188
1260.9000, -83.565
1261.0000, -86.039
1261.1000, -87.529
1261.2000, -80.810
1261.3000, -88.135
1261.4000, -87.267
1261.5000, -85.987
1261.6000, -84.906
1261.7000, -88.263
1261.8000, -83.203
1261.9000, -86.611
1262.0000, -89.952
1262.1000, -81.671
1262.2000, -85.596
1262.3000, -89.551
1262.4000, -80.838
1262.5000, -85.252
1262.6000, -88.735
1262.7000, -85.587
1262.8000, -84.622
1262.9000, -82.342
1263.0000, -84.317
1263.1000, -86.880
1263.2000, -83.859
1263.3000, -82.048
1263.4000, -84.803
1263.5000, -87.762
1263.6000, -87.297
1263.7000, -82.122
1263.8000, -80.570
1263.9000,-210.000
1264.0000, -83.095
1264.1000, -83.789
1264.2000, -86.872
1264.3000,-210.000
1264.4000, -80.551
1264.5000,-210.000
1264.6000, -84.902
1264.7000, -87.339
1264.8000, -86.599
1264.9000, -82.441
1265.0000, -81.399
1265.1000,-210.000
1265.2000, -81.715
1265.3000, -93.392
1265.4000, -83.546
1265.5000, -87.969
1265.6000,-210.000
1265.7000, -82.083
1265.8000, -81.762
1265.9000, -84.493
1266.0000, -85.375
1266.1000, -84.975
1266.2000, -86.077
1266.3000, -83.637
1266.4000, -85.457
1266.5000, -87.051
1266.6000, -83.121
1266.7000, -84.336
1266.8000, -85.184
1266.9000, -81.944
1267.0000,-210.000
1267.1000, -83.361
1267.2000, -84.807
1267.3000, -89.393
1267.4000, -83.237
1267.5000, -82.817
1267.6000,-210.000
1267.7000, -85.680
1267.8000, -82.532
1267.9000, -82.136
1268.0000, -84.620
1268.1000, -85.031
1268.2000, -85.468
1268.3000, -85.165
1268.4000, -91.417
1268.5000, -84.808
1268.6000, -83.156
1268.7000, -83.904
1268.8000, -82.973
1268.9000, -85.709
1269.0000, -81.330
1269.1000,-210.000
1269.2000, -81.628
1269.3000, -92.036
1269.4000, -86.795
1269.5000, -83.161
1269.6000, -83.541
1269.7000,-210.000
1269.8000, -82.381
1269.9000, -83.258
1270.0000, -84.602
1270.1000, -88.995
1270.2000, -81.737
1270.3000, -84.442
1270.4000, -86.950
1270.5000,-210.000
1270.6000, -83.264
1270.7000, -83.235
1270.8000, -82.327
1270.9000,-210.000
1271.0000, -85.227
1271.1000, -80.075
1271.2000, -82.589
1271.3000, -82.031
1271.4000, -80.487
1271.5000,-210.000
1271.6000, -80.199
1271.7000, -87.323
1271.8000, -86.737
1271.9000, -85.863
1272.0000, -87.265
1272.1000, -87.619
1272.2000, -85.230
1272.3000, -85.581
1272.4000, -85.688
1272.5000, -85.827
1272.6000, -87.242
1272.7000, -85.582
1272.8000, -83.136
1272.9000, -85.683
1273.0000, -83.427
1273.1000, -83.194
1273.2000, -82.836
1273.3000, -84.809
1273.4000, -87.748
1273.5000, -93.437
1273.6000, -82.160
1273.7000, -93.943
1273.8000, -85.691
1273.9000, -78.853
1274.0000, -85.290
1274.1000, -85.103
1274.2000, -90.809
1274.3000, -84.827
1274.4000, -83.102
1274.5000, -91.587
1274.6000, -85.838
1274.7000, -85.143
1274.8000, -82.306
1274.9000, -83.918
1275.0000, -89.365
1275.1000, -87.541
1275.2000, -95.114
1275.3000, -85.650
1275.4000, -83.115
1275.5000, -81.850
1275.6000, -85.851
1275.7000, -84.378
1275.8000, -83.507
1275.9000, -93.594
1276.0000, -83.264
1276.1000, -81.886
1276.2000, -81.390
1276.3000, -86.622
1276.4000, -92.693
1276.5000, -82.890
1276.6000, -82.667
1276.7000, -84.134
1276.8000,-112.597
1276.9000, -84.260
1277.0000, -84.796
1277.1000, -84.651
1277.2000, -87.620
1277.3000, -81.834
1277.4000, -89.310
1277.5000, -86.927
1277.6000, -85.816
1277.7000, -85.746
1277.8000, -81.929
1277.9000, -89.554
1278.0000, -85.967
1278.1000, -83.700
1278.2000, -82.449
1278.3000, -85.871
1278.4000, -89.234
1278.5000, -84.047
1278.6000,-210.000
1278.7000, -81.229
1278.8000, -83.354
1278.9000, -86.223
1279.0000, -83.423
1279.1000, -82.998
1279.2000, -81.997
1279.3000, -88.245
1279.4000, -82.818
1279.5000, -88.404
1279.6000, -87.239
1279.7000, -81.076
1279.8000, -84.672
1279.9000, -91.376
1280.0000, -83.878
1280.1000,-210.000
1280.2000, -81.833
1280.3000, -88.418
1280.4000, -87.453
1280.5000, -89.786
1280.6000, -84.843
1280.7000, -83.714
1280.8000, -85.210
1280.9000, -84.123
1281.0000, -84.698
1281.1000, -83.643
1281.2000, -85.561
1281.3000, -86.292
1281.4000, -82.550
1281.5000, -85.562
1281.6000, -84.794
1281.7000, -83.735
1281.8000, -87.156
1281.9000, -83.355
1282.0000, -84.944
1282.1000, -85.552
1282.2000, -83.423
1282.3000, -84.368
1282.4000, -91.457
1282.5000, -82.526
1282.6000, -83.614
1282.7000, -87.657
1282.8000, -85.321
1282.9000, -84.595
1283.0000, -84.556
1283.1000, -85.501
1283.2000, -81.388
1283.3000, -85.094
1283.4000, -87.552
1283.5000, -85.659
1283.6000, -84.478
1283.7000, -84.716
1283.8000, -98.674
1283.9000, -83.285
1284.0000, -85.408
1284.1000, -83.194
1284.2000, -83.317
1284.3000, -82.877
1284.4000, -83.808
1284.5000,-102.266
1284.6000, -86.303
1284.7000, -85.656
1284.8000, -81.141
1284.9000, -84.551
1285.0000, -82.585
1285.1000, -84.108
1285.2000, -83.541
1285.3000, -85.163
1285.4000, -84.216
1285.5000, -84.214
1285.6000, -87.144
1285.7000, -88.070
1285.8000, -82.309
1285.9000, -83.632
1286.0000, -87.035
1286.1000, -84.940
1286.2000, -81.700
1286.3000, -91.595
1286.4000, -81.564
1286.5000,-210.000
1286.6000, -81.606
1286.7000,-210.000
1286.8000, -86.643
1286.9000, -83.325
1287.0000, -86.370
1287.1000, -83.794
1287.2000,-210.000
1287.3000, -82.967
1287.4000, -84.689
1287.5000, -84.048
1287.6000, -88.489
1287.7000, -83.251
1287.8000, -81.997
1287.9000, -81.549
1288.0000,-210.000
1288.1000, -84.394
1288.2000, -86.146
1288.3000, -84.426
1288.4000, -84.647
1288.5000, -82.717
1288.6000, -86.949
1288.7000, -86.584
1288.8000, -83.554
1288.9000, -95.642
1289.0000, -83.384
1289.1000, -82.884
1289.2000, -85.916
1289.3000, -86.938
1289.4000,-210.000
1289.5000, -83.736
1289.6000, -81.816
1289.7000, -83.715
1289.8000, -84.480
1289.9000, -86.683
1290.0000, -85.231
1290.1000, -83.284
1290.2000, -84.558
1290.3000, -83.751
1290.4000, -83.431
1290.5000, -82.551
1290.6000, -87.295
1290.7000, -88.667
1290.8000, -82.326
1290.9000, -85.654
1291.0000, -82.830
1291.1000, -85.150
1291.2000, -87.401
1291.3000, -85.474
1291.4000, -82.702
1291.5000, -83.514
1291.6000, -86.659
1291.7000, -85.209
1291.8000, -83.259
1291.9000, -89.322
1292.0000, -85.493
1292.1000, -90.754
1292.2000, -83.001
1292.3000, -92.860
1292.4000, -82.436
1292.5000, -89.668
1292.6000, -83.968
1292.7000, -85.176
1292.8000, -84.209
1292.9000, -87.674
1293.0000, -81.495
1293.1000, -86.201
1293.2000, -83.899
1293.3000, -86.835
1293.4000, -84.906
1293.5000, -83.255
1293.6000,-210.000
1293.7000, -79.097
1293.8000, -82.537
1293.9000,-210.000
1294.0000,-210.000
1294.1000, -80.063
1294.2000, -80.740
1294.3000, -89.548
1294.4000, -85.979
1294.5000, -94.528
1294.6000, -88.205
1294.7000, -83.916
1294.8000, -82.367
1294.9000, -81.537
1295.0000, -83.898
1295.1000, -86.241
1295.2000, -87.641
1295.3000, -81.966
1295.4000, -83.702
1295.5000, -91.678
1295.6000, -83.269
1295.7000, -87.240
1295.8000, -82.633
1295.9000,-210.000
1296.0000,-210.000
1296.1000, -83.036
1296.2000, -85.074
1296.3000, -84.194
1296.4000, -81.814
1296.5000, -79.836
1296.6000,-210.000
1296.7000, -92.880
1296.8000, -86.558
1296.9000, -83.160
1297.0000, -83.960
1297.1000,-102.346
1297.2000, -82.779
1297.3000, -81.031
1297.4000, -84.982
1297.5000, -86.878
1297.6000,-210.000
1297.7000, -84.525
1297.8000, -86.833
1297.9000, -81.144
1298.0000, -80.983
1298.1000, -83.745
1298.2000, -90.311
1298.3000, -81.395
1298.4000,-210.000
1298.5000, -79.458
1298.6000, -93.894
1298.7000, -84.089
1298.8000, -83.013
1298.9000, -88.299
1299.0000, -81.383
1299.1000, -81.038
1299.2000,-210.000
1299.3000, -83.091
1299.4000, -89.273
1299.5000, -85.719
1299.6000, -81.503
1299.7000,-210.000
1299.8000, -83.696
1299.9000, -85.573
1300.0000, -82.920
1300.1000, -85.713
1300.2000, -88.633
1300.3000, -85.478
1300.4000, -83.393
1300.5000, -87.275
1300.6000, -86.868
1300.7000, -81.380
1300.8000, -81.767
1300.9000, -83.502
1301.0000,-210.000
1301.1000, -94.899
1301.2000, -83.501
1301.3000, -85.842
1301.4000, -85.513
1301.5000, -83.430
1301.6000, -83.216
1301.7000, -82.177
1301.8000,-210.000
1301.9000, -85.109
1302.0000, -84.502
1302.1000, -89.403
1302.2000, -82.722
1302.3000, -85.982
1302.4000, -86.661
1302.5000, -84.757
1302.6000, -88.502
1302.7000, -81.728
1302.8000, -82.355
1302.9000, -86.273
1303.0000, -84.572
1303.1000, -93.905
1303.2000, -90.498
1303.3000, -82.721
1303.4000, -90.543
1303.5000, -82.396
1303.6000, -82.490
1303.7000,-210.000
1303.8000, -80.185
1303.9000, -81.619
1304.0000,-210.000
1304.1000, -86.404
1304.2000,-210.000
1304.3000, -82.947
1304.4000, -82.596
1304.5000, -84.762
1304.6000, -83.213
1304.7000, -85.813
1304.8000, -82.341
1304.9000, -82.518
1305.0000, -87.637
1305.1000, -85.150
1305.2000, -87.262
1305.3000, -83.063
1305.4000, -89.840
1305.5000, -86.842
1305.6000, -81.890
1305.7000, -88.234
1305.8000, -81.091
1305.9000, -82.746
1306.0000,-210.000
1306.1000,-210.000
1306.2000, -85.209
1306.3000, -88.195
1306.4000, -82.756
1306.5000, -85.585
1306.6000, -80.618
1306.7000,-210.000
1306.8000, -84.590
1306.9000, -83.007
1307.0000, -86.184
1307.1000, -85.221
1307.2000, -84.281
1307.3000, -82.375
1307.4000, -83.974
1307.5000, -85.752
1307.6000, -87.582
1307.7000, -83.177
1307.8000, -88.215
1307.9000, -86.816
1308.0000,-210.000
1308.1000, -81.450
1308.2000, -95.247
1308.3000, -83.227
1308.4000, -86.868
1308.5000, -85.413
1308.6000, -82.866
1308.7000, -83.697
1308.8000, -82.843
1308.9000, -82.494
1309.0000, -86.362
1309.1000,-210.000
1309.2000, -84.153
1309.3000, -87.877
1309.4000, -98.340
1309.5000, -82.641
1309.6000, -85.968
1309.7000, -90.769
1309.8000, -84.379
1309.9000, -88.981
1310.0000, -84.341
1310.1000, -87.167
1310.2000, -83.205
1310.3000, -93.383
1310.4000, -83.651
1310.5000, -81.324
1310.6000, -84.306
1310.7000, -86.494
1310.8000, -87.697
1310.9000, -87.072
1311.0000, -86.109
1311.1000, -81.606
1311.2000, -94.615
1311.3000, -83.870
1311.4000,-210.000
1311.5000, -83.258
1311.6000, -83.396
1311.7000, -86.597
1311.8000,-210.000
1311.9000, -84.020
1312.0000, -82.637
1312.1000, -88.093
1312.2000, -84.523
1312.3000, -88.787
1312.4000, -84.609
1312.5000, -81.561
1312.6000, -88.042
1312.7000, -84.617
1312.8000, -83.540
1312.9000, -83.604
1313.0000, -84.225
1313.1000, -85.481
1313.2000, -84.301
1313.3000, -83.234
1313.4000, -84.888
1313.5000, -83.960
1313.6000, -84.898
1313.7000, -87.613
1313.8000, -84.743
1313.9000, -85.101
1314.0000, -82.712
1314.1000, -83.398
1314.2000, -80.414
1314.3000,-210.000
1314.4000, -83.149
1314.5000, -90.514
1314.6000, -84.249
1314.7000, -80.490
1314.8000, -82.958
1314.9000,-210.000
1315.0000, -82.134
1315.1000, -92.461
1315.2000,-210.000
1315.3000, -83.024
1315.4000, -85.896
1315.5000, -81.417
1315.6000,-210.000
1315.7000, -81.009
1315.8000, -82.624
1315.9000, -85.313
1316.0000, -83.514
1316.1000, -93.721
1316.2000, -82.060
1316.3000, -81.835
1316.4000, -90.322
1316.5000, -82.532
1316.6000,-210.000
1316.7000, -87.029
1316.8000, -83.628
1316.9000, -80.467
1317.0000, -86.829
1317.1000, -89.711
1317.2000, -90.450
1317.3000, -82.068
1317.4000, -87.015
1317.5000, -82.686
1317.6000, -85.651
1317.7000, -81.370
1317.8000, -81.350
1317.9000, -88.001
1318.0000, -81.337
1318.1000,-100.758
1318.2000, -79.771
1318.3000, -89.519
1318.4000, -81.338
1318.5000, -82.836
1318.6000, -85.201
1318.7000, -79.575
1318.8000, -92.366
1318.9000, -85.395
1319.0000, -77.745
1319.1000, -81.384
1319.2000, -79.511
1319.3000, -78.987
1319.4000, -80.035
1319.5000, -82.293
1319.6000, -82.763
1319.7000, -81.587
1319.8000, -81.342
1319.9000, -81.123
1320.0000, -79.143
1320.1000, -83.550
1320.2000, -80.988
1320.3000, -79.341
1320.4000, -83.443
1320.5000, -86.284
1320.6000, -83.596
1320.7000, -81.628
1320.8000, -80.271
1320.9000, -80.493
1321.0000,-210.000
1321.1000, -81.378
1321.2000, -81.459
1321.3000, -84.478
1321.4000, -83.275
1321.5000, -83.213
1321.6000, -83.449
1321.7000, -84.138
1321.8000, -83.215
1321.9000, -82.912
1322.0000, -84.097
1322.1000, -87.761
1322.2000, -81.654
1322.3000, -95.035
1322.4000, -82.845
1322.5000, -83.815
1322.6000, -85.064
1322.7000, -83.110
1322.8000, -88.753
1322.9000, -83.740
1323.0000, -81.863
1323.1000, -90.748
1323.2000, -83.209
1323.3000, -85.599
1323.4000, -85.945
1323.5000, -87.184
1323.6000, -87.168
1323.7000, -84.531
1323.8000, -84.275
1323.9000, -85.807
1324.0000, -84.847
1324.1000, -90.947
1324.2000, -83.473
1324.3000, -86.176
1324.4000, -84.336
1324.5000, -82.873
1324.6000, -87.585
1324.7000, -86.168
1324.8000, -84.300
1324.9000, -85.375
1325.0000, -85.792
1325.1000, -81.920
1325.2000, -87.161
1325.3000, -83.497
1325.4000, -85.065
1325.5000, -88.197
1325.6000, -81.546
1325.7000, -87.529
1325.8000, -80.297
1325.9000,-210.000
1326.0000, -81.646
1326.1000,-210.000
1326.2000, -84.544
1326.3000, -81.405
1326.4000, -85.040
1326.5000, -92.486
1326.6000, -87.144
1326.7000, -86.895
1326.8000, -83.501
1326.9000, -83.487
1327.0000, -81.668
1327.1000, -86.554
1327.2000, -87.251
1327.3000, -82.342
1327.4000, -84.875
1327.5000,-210.000
1327.6000, -84.064
1327.7000, -87.428
1327.8000, -83.461
1327.9000, -84.847
1328.0000, -84.728
1328.1000, -83.908
1328.2000, -85.590
1328.3000, -82.006
1328.4000, -88.181
1328.5000,-210.000
1328.6000, -81.952
1328.7000, -80.353
1328.8000, -81.948
1328.9000,-210.000
1329.0000, -83.878
1329.1000, -87.082
1329.2000, -82.258
1329.3000, -84.990
1329.4000, -84.100
1329.5000, -80.953
1329.6000, -84.515
1329.7000, -85.228
1329.8000, -83.120
1329.9000, -99.202
1330.0000, -81.232
1330.1000, -87.530
1330.2000, -80.983
1330.3000, -87.274
1330.4000,-210.000
1330.5000, -84.493
1330.6000, -85.738
1330.7000,-101.376
1330.8000, -85.567
1330.9000, -82.013
1331.0000, -84.671
1331.1000, -84.517
1331.2000, -81.698
1331.3000, -85.014
1331.4000, -86.958
1331.5000,-210.000
1331.6000, -82.175
1331.7000, -84.681
1331.8000, -81.876
1331.9000, -88.976
1332.0000, -84.109
1332.1000, -85.105
1332.2000, -83.295
1332.3000, -85.340
1332.4000, -83.283
1332.5000, -86.538
1332.6000, -82.608
1332.7000, -86.773
1332.8000, -87.671
1332.9000, -84.560
1333.0000, -83.528
1333.1000, -85.268
1333.2000, -83.104
1333.3000, -83.335
1333.4000, -81.618
1333.5000, -86.537
1333.6000, -84.975
1333.7000, -82.225
1333.8000, -84.481
1333.9000, -82.119
1334.0000, -82.772
1334.1000, -82.635
1334.2000, -83.255
1334.3000, -83.247
1334.4000, -80.680
1334.5000, -82.206
1334.6000, -85.688
1334.7000, -83.095
1334.8000, -80.887
1334.9000, -81.340
1335.0000, -81.382
1335.1000, -83.064
1335.2000, -80.560
1335.3000, -84.342
1335.4000, -81.178
1335.5000, -82.441
1335.6000, -81.050
1335.7000, -81.814
1335.8000, -79.506
1335.9000, -83.090
1336.0000, -83.836
1336.1000, -81.602
1336.2000, -81.320
1336.3000, -80.649
1336.4000, -87.322
1336.5000, -83.152
1336.6000, -83.151
1336.7000, -83.792
1336.8000, -83.788
1336.9000, -81.748
1337.0000, -80.983
1337.1000, -88.668
1337.2000, -83.383
1337.3000, -78.209
1337.4000, -83.235
1337.5000,-210.000
1337.6000, -81.517
1337.7000, -84.685
1337.8000, -82.085
1337.9000, -82.699
1338.0000, -82.873
1338.1000, -81.296
1338.2000, -80.944
1338.3000, -80.366
1338.4000, -81.049
1338.5000, -85.726
1338.6000, -80.332
1338.7000, -79.086
1338.8000, -81.673
1338.9000, -79.425
1339.0000, -79.275
1339.1000, -80.662
1339.2000, -78.299
1339.3000, -80.716
1339.4000, -82.682
1339.5000, -85.457
1339.6000, -80.180
1339.7000, -79.381
1339.8000, -84.296
1339.9000, -94.086
1340.0000, -80.913
1340.1000, -86.539
1340.2000, -79.224
1340.3000, -83.959
1340.4000, -84.635
1340.5000, -89.405
1340.6000, -83.471
1340.7000, -83.181
1340.8000, -82.129
1340.9000, -84.001
1341.0000, -81.437
1341.1000, -82.790
1341.2000, -81.931
1341.3000, -86.277
1341.4000, -82.299
1341.5000, -82.639
1341.6000, -82.685
1341.7000, -84.971
1341.8000, -80.895
1341.9000, -80.880
1342.0000, -83.736
1342.1000, -84.370
1342.2000, -80.992
1342.3000, -81.680
1342.4000, -82.142
1342.5000, -87.556
1342.6000, -88.390
1342.7000, -85.694
1342.8000, -92.634
1342.9000, -86.175
1343.0000, -81.518
1343.1000, -85.605
1343.2000, -86.087
1343.3000, -81.075
1343.4000, -81.593
1343.5000, -82.134
1343.6000, -86.098
1343.7000, -84.709
1343.8000,-210.000
1343.9000, -80.328
1344.0000, -97.813
1344.1000, -82.731
1344.2000, -84.473
1344.3000, -85.105
1344.4000, -91.622
1344.5000, -84.667
1344.6000, -85.202
1344.7000, -83.741
1344.8000, -82.717
1344.9000, -83.457
1345.0000, -85.207
1345.1000, -79.814
1345.2000, -89.789
1345.3000, -80.103
1345.4000,-210.000
1345.5000,-210.000
1345.6000, -86.170
1345.7000, -85.716
1345.8000, -82.859
1345.9000, -91.259
1346.0000, -83.362
1346.1000, -87.724
1346.2000, -82.389
1346.3000, -88.022
1346.4000, -83.318
1346.5000, -86.384
1346.6000, -86.671
1346.7000, -84.852
1346.8000, -84.772
1346.9000, -85.556
1347.0000, -84.269
1347.1000, -85.044
1347.2000, -83.280
1347.3000, -87.869
1347.4000, -82.938
1347.5000, -89.694
1347.6000, -86.184
1347.7000,-210.000
1347.8000, -85.047
1347.9000, -84.724
1348.0000, -82.783
1348.1000, -93.584
1348.2000, -81.790
1348.3000, -82.298
1348.4000,-210.000
1348.5000, -84.514
1348.6000, -84.022
1348.7000, -83.944
1348.8000, -82.467
1348.9000, -86.266
1349.0000, -84.695
1349.1000, -82.272
1349.2000,-210.000
1349.3000, -82.855
1349.4000, -85.823
1349.5000, -83.728
1349.6000, -88.238
1349.7000, -84.640
1349.8000, -84.890
1349.9000, -81.912
1350.0000, -82.490
1350.1000, -87.671
1350.2000, -83.770
1350.3000, -83.368
1350.4000, -91.941
1350.5000, -87.995
1350.6000, -82.690
1350.7000,-210.000
1350.8000, -82.705
1350.9000, -95.036
1351.0000, -83.979
1351.1000, -85.401
1351.2000, -82.624
1351.3000, -84.875
1351.4000, -85.361
1351.5000, -87.016
1351.6000, -86.162
1351.7000, -84.524
1351.8000, -84.184
1351.9000, -88.233
1352.0000, -84.380
1352.1000, -84.508
1352.2000, -86.059
1352.3000, -84.597
1352.4000, -83.243
1352.5000, -82.651
1352.6000, -85.178
1352.7000, -83.272
1352.8000, -80.569
1352.9000, -94.000
1353.0000,-210.000
1353.1000, -81.539
1353.2000, -85.732
1353.3000, -81.516
1353.4000,-210.000
1353.5000, -82.242
1353.6000, -80.906
1353.7000, -81.618
1353.8000,-210.000
1353.9000, -80.985
1354.0000, -80.638
1354.1000, -89.613
1354.2000, -83.414
1354.3000, -83.287
1354.4000, -88.056
1354.5000, -83.005
1354.6000, -88.171
1354.7000, -82.140
1354.8000, -85.462
1354.9000, -80.053
1355.0000,-210.000
1355.1000, -81.435
1355.2000, -85.545
1355.3000, -85.491
1355.4000, -83.855
1355.5000, -87.234
1355.6000, -83.780
1355.7000, -86.280
1355.8000, -81.766
1355.9000, -85.698
1356.0000, -81.671
1356.1000, -85.220
1356.2000, -86.651
1356.3000, -82.586
1356.4000, -85.077
1356.5000, -81.943
1356.6000, -82.057
1356.7000, -82.469
1356.8000, -83.359
1356.9000, -81.765
1357.0000, -81.841
1357.1000, -82.584
1357.2000, -80.609
1357.3000, -80.439
1357.4000, -82.789
1357.5000, -83.247
1357.6000, -83.392
1357.7000, -84.314
1357.8000, -79.112
1357.9000, -81.094
1358.0000, -88.473
1358.1000, -81.955
1358.2000,-210.000
1358.3000, -85.076
1358.4000, -82.683
1358.5000, -87.434
1358.6000, -83.838
1358.7000, -84.726
1358.8000, -84.877
1358.9000, -82.043
1359.0000,-210.000
1359.1000, -81.839
1359.2000, -86.223
1359.3000, -81.329
1359.4000, -99.603
1359.5000, -85.093
1359.6000, -83.145
1359.7000, -90.689
1359.8000, -85.064
1359.9000, -81.053
1360.0000, -82.963
1360.1000,-210.000
1360.2000, -85.220
1360.3000, -83.619
1360.4000, -83.301
1360.5000, -85.140
1360.6000, -83.855
1360.7000, -83.908
1360.8000, -89.596
1360.9000, -85.425
1361.0000, -85.820
1361.1000, -82.699
1361.2000, -84.233
1361.3000, -89.596
1361.4000, -83.648
1361.5000, -96.774
1361.6000, -83.993
1361.7000, -82.687
1361.8000, -82.881
1361.9000, -93.676
1362.0000, -89.552
1362.1000, -81.896
1362.2000, -84.556
1362.3000, -85.996
1362.4000, -80.440
1362.5000,-210.000
1362.6000, -82.285
1362.7000, -86.738
1362.8000, -88.857
1362.9000, -87.155
1363.0000, -85.259
1363.1000, -84.578
1363.2000, -84.217
1363.3000, -84.835
1363.4000, -85.981
1363.5000, -84.355
1363.6000, -86.375
1363.7000, -87.419
1363.8000, -86.357
1363.9000, -98.423
1364.0000, -86.751
1364.1000, -87.410
1364.2000, -84.275
1364.3000, -84.966
1364.4000, -84.680
1364.5000, -86.774
1364.6000, -83.511
1364.7000, -86.954
1364.8000, -84.612
1364.9000, -86.293
1365.0000, -86.178
1365.1000, -86.927
1365.2000, -92.975
1365.3000, -83.539
1365.4000, -82.160
1365.5000, -85.098
1365.6000, -89.805
1365.7000, -84.792
1365.8000, -82.354
1365.9000, -87.075
1366.0000, -95.330
1366.1000, -81.647
1366.2000, -83.236
1366.3000, -85.622
1366.4000, -83.520
1366.5000, -91.978
1366.6000, -81.827
1366.7000, -86.290
1366.8000, -82.730
1366.9000, -86.478
1367.0000, -82.255
1367.1000, -85.422
1367.2000, -88.314
1367.3000, -83.953
1367.4000, -86.571
1367.5000, -83.519
1367.6000, -84.670
1367.7000,-210.000
1367.8000, -91.789
1367.9000, -87.029
1368.0000, -84.660
1368.1000, -84.739
1368.2000, -83.325
1368.3000,-210.000
1368.4000, -82.374
1368.5000,-210.000
1368.6000, -81.489
1368.7000,-210.000
1368.8000, -85.411
1368.9000, -86.258
1369.0000, -94.148
1369.1000, -84.672
1369.2000, -83.540
1369.3000, -85.424
1369.4000, -88.226
1369.5000, -85.249
1369.6000, -84.211
1369.7000, -83.132
1369.8000, -84.944
1369.9000, -91.221
1370.0000, -83.863
1370.1000, -88.699
1370.2000, -86.132
1370.3000, -85.281
1370.4000, -85.664
1370.5000, -83.517
1370.6000, -83.969
1370.7000, -82.793
1370.8000,-210.000
1370.9000, -84.649
1371.0000, -84.263
1371.1000, -85.572
1371.2000, -83.845
1371.3000, -85.288
1371.4000, -83.508
1371.5000, -82.201
1371.6000, -85.455
1371.7000, -82.766
1371.8000, -82.572
1371.9000, -84.318
1372.0000, -83.124
1372.1000, -82.079
1372.2000,-210.000
1372.3000, -81.831
1372.4000,-210.000
1372.5000, -85.191
1372.6000, -86.202
1372.7000, -89.554
1372.8000, -80.933
1372.9000, -82.339
1373.0000, -84.921
1373.1000, -92.714
1373.2000, -84.222
1373.3000, -81.062
1373.4000, -83.949
1373.5000,-210.000
1373.6000, -84.858
1373.7000, -80.889
1373.8000,-210.000
1373.9000, -81.992
1374.0000, -90.813
1374.1000, -86.675
1374.2000, -84.150
1374.3000, -85.359
1374.4000, -85.214
1374.5000, -86.093
1374.6000, -83.351
1374.7000, -82.865
1374.8000, -88.966
1374.9000,-210.000
1375.0000, -82.516
1375.1000, -83.197
1375.2000, -83.178
1375.3000, -88.674
1375.4000, -85.262
1375.5000, -88.013
1375.6000, -82.973
1375.7000, -84.908
1375.8000, -87.894
1375.9000, -92.116
1376.0000, -83.430
1376.1000, -85.521
1376.2000, -80.345
1376.3000,-210.000
1376.4000, -87.664
1376.5000, -84.482
1376.6000, -85.505
1376.7000, -81.955
1376.8000, -87.051
1376.9000, -83.034
1377.0000, -90.165
1377.1000, -83.899
1377.2000,-100.676
1377.3000, -84.852
1377.4000, -84.136
1377.5000, -82.166
1377.6000, -88.617
1377.7000, -85.187
1377.8000, -81.277
1377.9000,-210.000
1378.0000, -82.233
1378.1000, -84.500
1378.2000, -77.028
1378.3000, -91.788
1378.4000, -85.759
1378.5000,-210.000
1378.6000, -79.426
1378.7000,-210.000
1378.8000, -86.879
1378.9000, -90.310
1379.0000, -82.767
1379.1000, -82.730
1379.2000, -85.380
1379.3000, -85.354
1379.4000, -80.366
1379.5000,-210.000
1379.6000, -81.787
1379.7000, -82.429
1379.8000,-210.000
1379.9000, -84.881
1380.0000, -81.297
1380.1000,-210.000
1380.2000, -81.621
1380.3000, -85.784
1380.4000, -83.360
1380.5000,-210.000
1380.6000, -80.753
1380.7000, -83.594
1380.8000, -83.561
1380.9000, -94.389
1381.0000, -88.003
1381.1000, -89.819
1381.2000, -87.468
1381.3000, -86.560
1381.4000, -81.605
1381.5000, -87.631
1381.6000, -98.537
1381.7000, -89.857
1381.8000, -84.974
1381.9000, -83.023
1382.0000, -83.400
1382.1000, -83.425
1382.2000, -83.903
1382.3000, -83.270
1382.4000, -83.822
1382.5000, -87.387
1382.6000, -83.468
1382.7000, -83.365
1382.8000, -85.860
1382.9000,-210.000
1383.0000, -86.182
1383.1000, -82.644
1383.2000, -84.238
1383.3000, -86.947
1383.4000, -82.178
1383.5000, -85.138
1383.6000, -88.477
1383.7000, -85.326
1383.8000, -83.899
1383.9000, -83.778
1384.0000, -88.051
1384.1000, -88.285
1384.2000, -82.553
1384.3000, -83.529
1384.4000, -91.006
1384.5000, -83.223
1384.6000, -86.951
1384.7000, -84.387
1384.8000, -81.046
1384.9000,-210.000
1385.0000, -86.014
1385.1000, -84.849
1385.2000, -84.635
1385.3000, -83.382
1385.4000, -82.077
1385.5000,-210.000
1385.6000, -82.980
1385.7000, -83.545
1385.8000, -82.072
1385.9000, -89.213
1386.0000, -83.816
1386.1000, -99.132
1386.2000, -86.259
1386.3000, -80.997
1386.4000,-210.000
1386.5000, -84.474
1386.6000, -83.498
1386.7000, -82.939
1386.8000, -84.228
1386.9000,-210.000
1387.0000, -83.979
1387.1000, -84.823
1387.2000, -96.577
1387.3000, -80.759
1387.4000, -84.762
1387.5000,-210.000
1387.6000, -87.145
1387.7000, -84.301
1387.8000, -81.847
1387.9000, -83.723
1388.0000, -84.537
1388.1000,-210.000
1388.2000, -81.209
1388.3000,-210.000
1388.4000, -83.475
1388.5000, -81.601
1388.6000, -85.821
1388.7000, -97.155
1388.8000, -79.106
1388.9000, -82.870
1389.0000, -82.609
1389.1000,-210.000
1389.2000,-210.000
1389.3000, -81.126
1389.4000, -82.439
1389.5000,-210.000
1389.6000, -80.763
1389.7000, -81.395
1389.8000,-210.000
1389.9000, -80.777
1390.0000,-210.000
1390.1000, -82.179
1390.2000, -91.245
1390.3000, -83.951
1390.4000, -83.801
1390.5000,-210.000
1390.6000,-210.000
1390.7000, -82.691
1390.8000, -81.693
1390.9000, -80.446
1391.0000, -87.329
1391.1000, -94.366
1391.2000, -84.275
1391.3000, -84.032
1391.4000, -84.634
1391.5000, -84.897
1391.6000, -99.212
1391.7000, -81.988
1391.8000, -86.040
1391.9000, -81.623
1392.0000, -87.421
1392.1000, -82.294
1392.2000, -86.650
1392.3000, -84.381
1392.4000,-100.158
1392.5000,-210.000
1392.6000, -83.231
1392.7000, -85.349
1392.8000, -83.719
1392.9000, -83.627
1393.0000, -81.249
1393.1000,-210.000
1393.2000, -81.206
1393.3000, -82.378
1393.4000,-210.000
1393.5000, -84.436
1393.6000, -82.501
1393.7000, -87.571
1393.8000, -84.212
1393.9000, -82.767
1394.0000, -83.859
1394.1000, -88.209
1394.2000, -81.507
1394.3000,-210.000
1394.4000, -84.325
1394.5000, -84.400
1394.6000, -82.865
1394.7000, -83.585
1394.8000, -82.789
1394.9000, -83.669
1395.0000, -95.567
1395.1000, -82.783
1395.2000, -86.587
1395.3000, -84.657
1395.4000, -81.159
1395.5000,-210.000
1395.6000, -82.900
1395.7000, -84.879
1395.8000, -85.834
1395.9000, -82.970
1396.0000,-210.000
1396.1000, -81.008
1396.2000, -90.836
1396.3000, -85.915
1396.4000, -86.897
1396.5000, -82.912
1396.6000, -84.325
1396.7000, -84.189
1396.8000, -83.188
1396.9000, -83.188
1397.0000, -84.238
1397.1000, -91.441
1397.2000, -86.714
1397.3000, -85.211
1397.4000, -84.500
1397.5000, -83.210
1397.6000, -84.292
1397.7000, -86.466
1397.8000, -82.230
1397.9000, -99.259
1398.0000, -91.002
1398.1000, -81.976
1398.2000, -84.345
1398.3000, -86.163
1398.4000, -83.748
1398.5000, -84.102
1398.6000, -82.971
1398.7000, -83.883
1398.8000, -84.994
1398.9000, -82.189
1399.0000, -83.936
1399.1000, -86.210
1399.2000, -80.502
1399.3000, -82.369
1399.4000,-210.000
1399.5000, -83.186
1399.6000, -86.872
1399.7000, -84.987
1399.8000, -84.932
1399.9000, -86.034
1400.0000, -82.885
1400.1000, -83.089
1400.2000, -88.226
1400.3000, -81.665
1400.4000, -84.994
1400.5000, -82.394
1400.6000, -88.838
1400.7000, -98.348
1400.8000, -82.207
1400.9000, -93.960
1401.0000, -86.392
1401.1000, -85.753
1401.2000, -81.685
1401.3000, -88.504
1401.4000, -80.947
1401.5000, -85.794
1401.6000, -82.056
1401.7000,-210.000
1401.8000, -81.525
1401.9000, -84.410
1402.0000, -87.399
1402.1000, -82.678
1402.2000, -81.344
1402.3000, -86.850
1402.4000, -83.194
1402.5000, -84.152
1402.6000, -81.231
1402.7000,-210.000
1402.8000, -80.195
1402.9000,-210.000
1403.0000, -83.131
1403.1000,-210.000
1403.2000, -89.126
1403.3000, -88.262
1403.4000, -81.911
1403.5000,-210.000
1403.6000, -85.101
1403.7000, -82.958
1403.8000, -84.037
1403.9000, -83.342
1404.0000, -83.527
1404.1000, -87.442
1404.2000, -82.532
1404.3000, -86.154
1404.4000, -82.955
1404.5000, -85.161
1404.6000,-100.726
1404.7000, -91.766
1404.8000, -84.051
1404.9000, -84.697
1405.0000, -83.045
1405.1000, -80.936
1405.2000, -93.844
1405.3000, -80.029
1405.4000,-210.000
1405.5000, -82.808
1405.6000, -85.212
1405.7000, -80.510
1405.8000, -87.155
1405.9000, -82.153
1406.0000, -83.642
1406.1000, -86.376
1406.2000,-210.000
1406.3000, -89.271
1406.4000, -83.208
1406.5000, -82.196
1406.6000, -85.653
1406.7000, -83.633
1406.8000, -85.821
1406.9000, -82.130
1407.0000, -83.083
1407.1000, -82.648
1407.2000, -98.939
1407.3000, -88.965
1407.4000, -80.235
1407.5000, -94.232
1407.6000, -82.878
1407.7000, -83.520
1407.8000, -87.549
1407.9000, -86.257
1408.0000,-210.000
1408.1000, -83.599
1408.2000, -81.771
1408.3000, -84.316
1408.4000, -83.703
1408.5000, -84.364
1408.6000, -90.325
1408.7000, -82.641
1408.8000, -84.330
1408.9000, -83.565
1409.0000, -84.981
1409.1000, -82.083
1409.2000, -86.216
1409.3000, -89.040
1409.4000, -83.682
1409.5000, -90.797
1409.6000, -81.490
1409.7000, -91.297
1409.8000, -83.088
1409.9000, -86.419
1410.0000, -79.872
1410.1000, -85.430
1410.2000, -93.654
1410.3000, -84.130
1410.4000, -87.780
1410.5000, -79.819
1410.6000, -86.705
1410.7000, -91.078
1410.8000, -86.690
1410.9000, -81.833
1411.0000, -79.985
1411.1000,-210.000
1411.2000, -81.911
1411.3000, -81.496
1411.4000, -83.365
1411.5000,-210.000
1411.6000, -82.908
1411.7000, -81.928
1411.8000, -80.649
1411.9000, -85.649
1412.0000, -81.295
1412.1000, -82.678
1412.2000, -84.458
1412.3000,-210.000
1412.4000, -83.436
1412.5000,-210.000
1412.6000, -80.024
1412.7000, -84.303
1412.8000, -86.479
1412.9000, -79.814
1413.0000, -85.684
1413.1000, -90.805
1413.2000, -80.524
1413.3000, -86.015
1413.4000, -79.816
1413.5000, -81.531
1413.6000, -79.714
1413.7000, -87.475
1413.8000, -87.962
1413.9000, -85.833
1414.0000, -80.302
1414.1000, -88.677
1414.2000, -82.746
1414.3000, -81.753
1414.4000, -79.202
1414.5000,-210.000
1414.6000, -82.559
1414.7000, -84.959
1414.8000, -80.661
1414.9000, -83.883
1415.0000, -81.275
1415.1000,-210.000
1415.2000, -80.248
1415.3000, -85.357
1415.4000, -82.913
1415.5000, -89.042
1415.6000, -83.114
1415.7000, -80.161
1415.8000, -84.942
1415.9000, -86.178
1416.0000, -84.023
1416.1000, -84.618
1416.2000, -81.756
1416.3000, -84.971
1416.4000, -81.672
1416.5000, -83.924
1416.6000, -83.080
1416.7000, -82.901
1416.8000,-210.000
1416.9000, -86.387
1417.0000, -80.018
1417.1000, -81.729
1417.2000, -86.782
1417.3000, -84.657
1417.4000, -81.396
1417.5000, -88.352
1417.6000, -81.555
1417.7000, -84.653
1417.8000, -84.868
1417.9000, -85.055
1418.0000, -85.681
1418.1000, -90.370
1418.2000, -85.425
1418.3000, -83.168
1418.4000, -81.257
1418.5000, -84.345
1418.6000, -80.366
1418.7000, -80.587
1418.8000,-210.000
1418.9000, -91.235
1419.0000, -84.923
1419.1000, -82.847
1419.2000, -81.150
1419.3000, -85.046
1419.4000, -85.256
1419.5000, -85.564
1419.6000, -82.036
1419.7000,-210.000
1419.8000, -84.074
1419.9000, -81.635
1420.0000, -86.220
1420.1000, -85.921
1420.2000, -88.238
1420.3000, -81.611
1420.4000, -82.768
1420.5000, -90.231
1420.6000, -84.468
1420.7000, -83.485
1420.8000, -83.934
1420.9000, -85.108
1421.0000, -81.815
1421.1000, -86.611
1421.2000, -82.345
1421.3000, -83.512
1421.4000, -84.381
1421.5000, -81.702
1421.6000, -84.779
1421.7000, -88.619
1421.8000, -83.353
1421.9000, -81.881
1422.0000, -90.825
1422.1000, -85.640
1422.2000, -81.034
1422.3000, -85.163
1422.4000, -84.131
1422.5000, -82.851
1422.6000, -83.506
1422.7000, -90.675
1422.8000, -82.132
1422.9000, -82.263
1423.0000, -85.513
1423.1000, -83.932
1423.2000, -82.172
1423.3000, -83.490
1423.4000, -88.133
1423.5000, -85.811
1423.6000, -82.469
1423.7000, -83.035
1423.8000, -83.085
1423.9000, -82.611
1424.0000, -83.589
1424.1000, -81.856
1424.2000, -84.172
1424.3000, -84.976
1424.4000, -83.054
1424.5000, -89.399
1424.6000, -83.538
1424.7000, -84.087
1424.8000, -82.778
1424.9000,-210.000
1425.0000, -83.627
1425.1000, -84.061
1425.2000, -84.252
1425.3000, -82.577
1425.4000, -85.139
1425.5000, -83.981
1425.6000, -87.973
1425.7000, -82.735
1425.8000, -84.079
1425.9000, -82.659
1426.0000, -86.378
1426.1000, -93.324
1426.2000, -81.067
1426.3000, -81.479
1426.4000, -82.852
1426.5000, -85.700
1426.6000, -85.116
1426.7000, -85.156
1426.8000, -82.406
1426.9000, -82.365
1427.0000, -81.820
1427.1000, -90.284
1427.2000, -80.577
1427.3000, -86.065
1427.4000, -84.823
1427.5000, -85.706
1427.6000, -83.347
1427.7000, -83.502
1427.8000, -84.091
1427.9000, -85.783
1428.0000, -83.153
1428.1000, -81.760
1428.2000, -86.027
1428.3000, -81.408
1428.4000, -90.670
1428.5000, -81.813
1428.6000, -88.966
1428.7000, -83.323
1428.8000, -93.331
1428.9000, -89.629
1429.0000, -84.450
1429.1000, -83.288
1429.2000, -82.087
1429.3000, -82.915
1429.4000, -80.397
1429.5000, -90.201
1429.6000,-210.000
1429.7000, -80.324
1429.8000,-210.000
1429.9000, -81.473
1430.0000, -82.818
1430.1000, -83.772
1430.2000, -82.573
1430.3000, -81.129
1430.4000, -83.778
1430.5000, -80.717
1430.6000,-210.000
1430.7000, -83.419
1430.8000, -80.963
1430.9000, -83.211
1431.0000, -80.565
1431.1000, -84.983
1431.2000, -83.836
1431.3000, -82.394
1431.4000, -82.529
1431.5000, -80.190
1431.6000, -87.192
1431.7000, -85.468
1431.8000, -80.336
1431.9000,-210.000
1432.0000, -81.485
1432.1000, -80.734
1432.2000, -80.840
1432.3000, -82.444
1432.4000, -83.748
1432.5000,-210.000
1432.6000, -86.368
1432.7000, -81.892
1432.8000, -81.797
1432.9000,-210.000
1433.0000,-210.000
1433.1000, -80.834
1433.2000,-210.000
1433.3000, -78.824
1433.4000, -81.172
1433.5000,-210.000
1433.6000, -81.409
1433.7000, -87.286
1433.8000, -84.904
1433.9000, -86.115
1434.0000, -86.640
1434.1000,-210.000
1434.2000,-210.000
1434.3000, -80.842
1434.4000,-210.000
1434.5000, -86.818
1434.6000, -82.476
1434.7000, -82.718
1434.8000, -81.134
1434.9000,-210.000
1435.0000, -81.574
1435.1000, -81.874
1435.2000, -92.084
1435.3000, -85.765
1435.4000, -84.191
1435.5000, -82.922
1435.6000, -83.382
1435.7000, -83.900
1435.8000, -84.363
1435.9000, -82.775
1436.0000, -81.766
1436.1000, -87.400
1436.2000, -82.660
1436.3000, -86.259
1436.4000, -83.037
1436.5000, -85.025
1436.6000, -87.342
1436.7000, -82.860
1436.8000, -82.763
1436.9000, -82.217
1437.0000,-210.000
1437.1000, -84.175
1437.2000, -83.968
1437.3000, -82.254
1437.4000, -85.143
1437.5000, -82.711
1437.6000, -87.081
1437.7000, -86.929
1437.8000, -88.085
1437.9000, -84.104
1438.0000, -82.760
1438.1000, -82.154
1438.2000, -86.762
1438.3000, -82.392
1438.4000, -86.801
1438.5000, -84.479
1438.6000, -83.259
1438.7000, -83.797
1438.8000, -87.819
1438.9000, -81.654
1439.0000, -80.512
1439.1000, -89.838
1439.2000, -81.565
1439.3000, -82.994
1439.4000, -87.052
1439.5000, -82.669
1439.6000, -82.614
1439.7000, -94.692
1439.8000, -83.138
1439.9000, -98.302
1440.0000, -79.909
1440.1000,-210.000
1440.2000, -79.853
1440.3000, -90.289
1440.4000, -83.960
1440.5000, -82.270
1440.6000, -85.909
1440.7000, -87.419
1440.8000, -81.398
1440.9000, -83.611
1441.0000, -82.185
1441.1000, -83.547
1441.2000, -81.984
1441.3000, -85.680
1441.4000, -87.737
1441.5000, -81.673
1441.6000, -83.656
1441.7000, -86.699
1441.8000, -83.670
1441.9000, -83.727
1442.0000, -81.933
1442.1000, -83.994
1442.2000, -82.909
1442.3000, -85.885
1442.4000, -82.919
1442.5000, -90.406
1442.6000, -86.360
1442.7000, -82.193
1442.8000, -82.655
1442.9000, -82.341
1443.0000, -82.745
1443.1000, -84.523
1443.2000, -83.055
1443.3000, -84.065
1443.4000, -84.667
1443.5000, -81.708
1443.6000, -89.006
1443.7000, -84.762
1443.8000, -82.321
1443.9000, -84.025
1444.0000, -85.835
1444.1000, -82.786
1444.2000, -80.371
1444.3000, -81.811
1444.4000, -80.248
1444.5000, -94.138
1444.6000, -81.863
1444.7000, -87.615
1444.8000, -78.274
1444.9000, -92.827
1445.0000, -87.433
1445.1000, -87.216
1445.2000,-210.000
1445.3000, -79.332
1445.4000, -94.141
1445.5000, -83.364
1445.6000,-210.000
1445.7000, -80.710
1445.8000, -99.740
1445.9000, -85.737
1446.0000, -80.584
1446.1000, -82.120
1446.2000,-210.000
1446.3000, -82.263
1446.4000, -81.753
1446.5000, -90.319
1446.6000, -81.335
1446.7000, -79.504
1446.8000, -88.146
1446.9000,-210.000
1447.0000, -86.492
1447.1000, -84.708
1447.2000, -84.832
1447.3000, -82.798
1447.4000, -85.303
1447.5000, -83.875
1447.6000, -83.330
1447.7000, -82.070
1447.8000, -86.125
1447.9000, -83.319
1448.0000, -84.344
1448.1000, -82.602
1448.2000, -82.364
1448.3000, -84.534
1448.4000, -83.932
1448.5000, -84.105
1448.6000, -83.312
1448.7000, -87.268
1448.8000, -82.571
1448.9000, -83.289
1449.0000, -83.039
1449.1000, -85.210
1449.2000, -82.154
1449.3000, -82.803
1449.4000, -85.735
1449.5000, -87.881
1449.6000, -81.889
1449.7000, -87.568
1449.8000, -81.642
1449.9000, -86.680
1450.0000, -81.646
1450.1000, -85.575
1450.2000, -83.395
1450.3000, -83.030
1450.4000, -86.042
1450.5000, -84.164
1450.6000, -81.421
1450.7000, -83.909
1450.8000,-210.000
1450.9000, -81.533
1451.0000, -85.241
1451.1000, -85.474
1451.2000, -87.722
1451.3000, -80.972
1451.4000, -84.200
1451.5000, -82.487
1451.6000, -82.344
1451.7000, -89.960
1451.8000, -83.271
1451.9000, -81.176
1452.0000, -83.625
1452.1000, -84.211
1452.2000, -85.697
1452.3000, -81.041
1452.4000, -88.255
1452.5000, -84.525
1452.6000, -81.652
1452.7000, -92.546
1452.8000, -84.767
1452.9000, -86.996
1453.0000, -79.519
1453.1000, -82.706
1453.2000, -86.442
1453.3000, -84.651
1453.4000, -86.169
1453.5000, -82.383
1453.6000, -85.255
1453.7000, -87.018
1453.8000, -85.839
1453.9000, -87.756
1454.0000, -84.188
1454.1000, -81.585
1454.2000, -86.545
1454.3000, -85.360
1454.4000, -90.025
1454.5000, -81.094
1454.6000, -81.566
1454.7000, -85.667
1454.8000, -78.254
1454.9000, -88.050
1455.0000,-210.000
1455.1000, -84.699
1455.2000, -83.733
1455.3000, -83.688
1455.4000, -88.221
1455.5000, -84.296
1455.6000, -78.213
1455.7000,-210.000
1455.8000, -78.602
1455.9000,-210.000
1456.0000, -84.791
1456.1000, -87.817
1456.2000, -80.402
1456.3000, -96.666
1456.4000, -86.378
1456.5000,-210.000
1456.6000, -84.291
1456.7000, -83.493
1456.8000, -80.168
1456.9000, -89.877
1457.0000, -80.159
1457.1000, -83.908
1457.2000, -81.113
1457.3000, -84.141
1457.4000, -89.180
1457.5000, -88.795
1457.6000, -82.126
1457.7000, -86.867
1457.8000, -82.992
1457.9000, -88.019
1458.0000,-210.000
1458.1000, -84.669
1458.2000, -85.028
1458.3000, -80.308
1458.4000, -91.164
1458.5000, -82.732
1458.6000, -83.358
1458.7000,-210.000
1458.8000, -81.639
1458.9000, -86.536
1459.0000, -81.415
1459.1000, -84.039
1459.2000, -87.202
1459.3000, -82.486
1459.4000, -80.427
1459.5000, -87.122
1459.6000, -80.952
1459.7000,-210.000
1459.8000, -81.873
1459.9000, -87.613
1460.0000, -85.182
1460.1000, -82.234
1460.2000, -83.396
1460.3000, -86.242
1460.4000, -83.318
1460.5000, -84.096
1460.6000, -81.445
1460.7000, -84.596
1460.8000, -81.139
1460.9000, -85.660
1461.0000,-210.000
1461.1000, -82.578
1461.2000, -83.852
1461.3000, -85.564
1461.4000, -84.984
1461.5000, -81.390
1461.6000, -80.757
1461.7000, -85.397
1461.8000, -82.852
1461.9000, -84.555
1462.0000, -89.257
1462.1000,-210.000
1462.2000, -81.246
1462.3000, -80.598
1462.4000,-210.000
1462.5000, -81.847
1462.6000, -81.127
1462.7000, -89.127
1462.8000, -83.600
1462.9000, -88.071
1463.0000, -79.783
1463.1000, -87.624
1463.2000, -86.798
1463.3000, -90.164
1463.4000, -80.709
1463.5000, -82.117
1463.6000, -83.024
1463.7000,-210.000
1463.8000, -82.097
1463.9000, -83.650
1464.0000, -81.502
1464.1000, -80.763
1464.2000, -90.244
1464.3000, -81.772
1464.4000,-210.000
1464.5000, -83.304
1464.6000, -84.898
1464.7000, -85.068
1464.8000, -80.784
1464.9000,-210.000
1465.0000, -82.510
1465.1000,-210.000
1465.2000, -86.950
1465.3000, -83.785
1465.4000, -81.064
1465.5000, -83.984
1465.6000, -86.640
1465.7000, -83.617
1465.8000, -82.439
1465.9000, -81.692
1466.0000, -82.869
1466.1000, -82.724
1466.2000, -86.470
1466.3000, -82.073
1466.4000, -81.968
1466.5000, -84.570
1466.6000, -83.000
1466.7000, -86.555
1466.8000, -82.680
1466.9000, -84.139
1467.0000, -84.242
1467.1000, -81.922
1467.2000, -85.069
1467.3000, -88.203
1467.4000, -84.268
1467.5000, -85.377
1467.6000, -87.237
1467.7000, -80.523
1467.8000, -85.664
1467.9000, -82.343
1468.0000, -85.960
1468.1000, -85.544
1468.2000, -83.624
1468.3000, -83.059
1468.4000, -84.743
1468.5000, -86.915
1468.6000, -83.548
1468.7000, -83.666
1468.8000, -84.048
1468.9000, -83.276
1469.0000, -92.701
1469.1000, -83.549
1469.2000, -82.566
1469.3000, -88.833
1469.4000, -82.146
1469.5000, -82.901
1469.6000, -82.759
1469.7000, -83.371
1469.8000, -83.099
1469.9000, -98.002
1470.0000, -86.216
1470.1000, -85.763
1470.2000, -85.047
1470.3000, -81.753
1470.4000, -87.951
1470.5000, -80.966
1470.6000, -81.797
1470.7000, -87.416
1470.8000, -89.680
1470.9000, -83.083
1471.0000, -83.975
1471.1000, -82.699
1471.2000, -86.274
1471.3000, -87.066
1471.4000, -83.602
1471.5000, -82.631
1471.6000, -83.494
1471.7000, -90.204
1471.8000, -84.675
1471.9000, -85.541
1472.0000, -83.479
1472.1000, -84.152
1472.2000, -83.913
1472.3000, -83.074
1472.4000,-210.000
1472.5000, -83.636
1472.6000, -84.320
1472.7000, -83.480
1472.8000, -83.054
1472.9000, -84.543
1473.0000, -85.770
1473.1000, -83.589
1473.2000,-210.000
1473.3000, -84.719
1473.4000, -82.752
1473.5000, -84.159
1473.6000, -85.344
1473.7000, -82.805
1473.8000, -86.356
1473.9000, -85.782
1474.0000, -84.100
1474.1000, -82.372
1474.2000, -85.572
1474.3000, -83.699
1474.4000, -80.787
1474.5000, -87.989
1474.6000, -84.214
1474.7000, -80.126
1474.8000, -82.844
1474.9000, -82.356
1475.0000,-210.000
1475.1000, -82.818
1475.2000, -95.882
1475.3000, -81.047
1475.4000, -83.575
1475.5000, -85.555
1475.6000, -81.476
1475.7000, -86.071
1475.8000, -87.858
1475.9000, -86.686
1476.0000, -83.589
1476.1000, -84.724
1476.2000, -86.547
1476.3000, -83.296
1476.4000, -85.850
1476.5000, -84.114
1476.6000, -81.969
1476.7000, -81.313
1476.8000,-210.000
1476.9000, -84.815
1477.0000, -85.184
1477.1000, -86.353
1477.2000, -82.014
1477.3000, -84.919
1477.4000, -81.694
1477.5000,-108.746
1477.6000, -82.477
1477.7000, -87.162
1477.8000, -82.359
1477.9000, -82.289
1478.0000, -86.340
1478.1000, -89.404
1478.2000, -82.004
1478.3000, -92.580
1478.4000, -86.006
1478.5000, -79.335
1478.6000,-210.000
1478.7000,-210.000
1478.8000, -82.710
1478.9000, -81.389
1479.0000, -83.748
1479.1000, -81.060
1479.2000,-210.000
1479.3000, -86.462
1479.4000, -85.912
1479.5000, -84.635
1479.6000, -85.975
1479.7000, -86.773
1479.8000, -82.720
1479.9000, -84.405
1480.0000,-210.000
1480.1000, -82.559
1480.2000, -82.918
1480.3000, -87.286
1480.4000, -85.708
1480.5000, -84.293
1480.6000, -81.775
1480.7000, -86.375
1480.8000, -82.444
1480.9000, -86.483
1481.0000, -90.214
1481.1000, -81.032
1481.2000, -82.118
1481.3000, -84.904
1481.4000, -86.252
1481.5000, -81.944
1481.6000, -84.613
1481.7000, -84.676
1481.8000, -79.523
1481.9000,-210.000
1482.0000, -87.347
1482.1000, -82.020
1482.2000, -81.652
1482.3000, -85.344
1482.4000, -81.919
1482.5000, -80.911
1482.6000,-210.000
1482.7000, -81.997
1482.8000, -81.627
1482.9000, -85.886
1483.0000,-210.000
1483.1000, -79.730
1483.2000, -80.016
1483.3000,-210.000
1483.4000, -86.219
1483.5000, -83.171
1483.6000, -86.393
1483.7000, -80.242
1483.8000, -82.596
1483.9000, -82.792
1484.0000, -81.111
1484.1000, -89.739
1484.2000, -83.586
1484.3000, -82.445
1484.4000, -86.793
1484.5000, -80.567
1484.6000, -85.108
1484.7000,-210.000
1484.8000, -88.378
1484.9000, -83.852
1485.0000, -83.263
1485.1000, -81.317
1485.2000, -84.503
1485.3000, -85.662
1485.4000, -81.814
1485.5000, -81.951
1485.6000, -85.543
1485.7000, -82.041
1485.8000, -93.559
1485.9000, -80.380
1486.0000,-210.000
1486.1000, -81.297
1486.2000,-210.000
1486.3000, -82.831
1486.4000, -80.336
1486.5000, -92.815
1486.6000, -83.039
1486.7000, -88.883
1486.8000, -81.922
1486.9000, -86.640
1487.0000, -80.476
1487.1000, -91.400
1487.2000, -80.568
1487.3000, -84.694
1487.4000, -81.957
1487.5000, -81.769
1487.6000, -87.737
1487.7000, -85.874
1487.8000, -83.410
1487.9000,-210.000
1488.0000, -84.402
1488.1000, -85.136
1488.2000, -85.569
1488.3000, -81.322
1488.4000, -88.808
1488.5000, -83.997
1488.6000, -83.956
1488.7000, -96.465
1488.8000, -81.871
1488.9000, -83.851
1489.0000, -84.078
1489.1000, -81.763
1489.2000, -85.944
1489.3000, -82.965
1489.4000, -83.420
1489.5000,-210.000
1489.6000, -84.853
1489.7000, -85.835
1489.8000, -81.673
1489.9000, -85.680
1490.0000, -84.120
1490.1000, -83.003
1490.2000, -84.296
1490.3000, -84.726
1490.4000, -84.451
1490.5000, -81.909
1490.6000, -84.769
1490.7000, -86.248
1490.8000, -85.020
1490.9000, -81.768
1491.0000,-210.000
1491.1000, -86.110
1491.2000, -82.699
1491.3000, -86.407
1491.4000, -83.739
1491.5000, -94.902
1491.6000, -81.195
1491.7000, -84.430
1491.8000, -86.709
1491.9000, -84.596
1492.0000, -88.037
1492.1000, -85.424
1492.2000, -81.715
1492.3000, -82.320
1492.4000, -83.928
1492.5000, -82.419
1492.6000, -87.886
1492.7000, -85.697
1492.8000, -83.277
1492.9000, -83.272
1493.0000, -85.981
1493.1000, -84.065
1493.2000, -82.722
1493.3000, -82.125
1493.4000, -82.615
1493.5000, -85.621
1493.6000, -81.870
1493.7000,-210.000
1493.8000, -83.719
1493.9000, -82.940
1494.0000, -79.248
1494.1000,-210.000
1494.2000, -89.347
1494.3000, -82.953
1494.4000, -84.199
1494.5000, -81.587
1494.6000, -80.836
1494.7000, -90.035
1494.8000, -88.184
1494.9000, -82.959
1495.0000, -83.244
1495.1000,-210.000
1495.2000, -80.316
1495.3000, -83.474
1495.4000, -86.815
1495.5000, -82.078
1495.6000, -82.611
1495.7000, -86.711
1495.8000, -79.993
1495.9000, -86.961
1496.0000, -84.875
1496.1000, -81.962
1496.2000, -84.799
1496.3000,-210.000
1496.4000, -82.262
1496.5000, -83.581
1496.6000, -83.017
1496.7000,-210.000
1496.8000, -83.364
1496.9000, -84.712
1497.0000, -86.550
1497.1000, -84.398
1497.2000, -80.789
1497.3000, -82.256
1497.4000, -82.142
1497.5000, -87.074
1497.6000, -85.134
1497.7000, -84.309
1497.8000, -86.880
1497.9000, -84.540
1498.0000, -86.155
1498.1000, -79.889
1498.2000, -80.507
1498.3000,-210.000
1498.4000, -83.134
1498.5000, -92.075
1498.6000, -82.799
1498.7000, -83.273
1498.8000, -84.261
1498.9000, -81.070
1499.0000,-104.936
1499.1000, -85.400
1499.2000, -88.209
1499.3000, -83.863
1499.4000, -85.066
1499.5000, -88.287
1499.6000, -84.243
1499.7000, -82.912
1499.8000, -83.282
1499.9000, -86.173
1500.0000, -82.263
1500.1000, -83.487
1500.2000, -87.744
1500.3000, -80.482
1500.4000, -83.221
1500.5000,-210.000
1500.6000, -80.186
1500.7000, -85.609
1500.8000, -81.899
1500.9000, -82.759
1501.0000, -84.026
1501.1000, -80.966
1501.2000, -83.730
1501.3000, -89.664
1501.4000, -85.423
1501.5000, -80.315
1501.6000, -87.186
1501.7000, -84.032
1501.8000, -83.235
1501.9000, -82.964
1502.0000, -86.266
1502.1000, -82.534
1502.2000, -81.089
1502.3000, -81.715
1502.4000,-210.000
1502.5000, -81.746
1502.6000, -83.099
1502.7000, -86.495
1502.8000, -83.338
1502.9000, -81.993
1503.0000,-210.000
1503.1000, -81.467
1503.2000, -84.010
1503.3000, -83.183
1503.4000, -86.867
1503.5000, -84.613
1503.6000, -85.307
1503.7000, -82.631
1503.8000, -84.238
1503.9000, -83.158
1504.0000, -82.315
1504.1000, -81.718
1504.2000, -82.429
1504.3000, -85.186
1504.4000, -81.787
1504.5000, -84.108
1504.6000, -88.567
1504.7000, -84.854
1504.8000, -84.490
1504.9000, -83.250
1505.0000, -81.442
1505.1000, -84.050
1505.2000, -84.461
1505.3000, -85.192
1505.4000, -82.550
1505.5000,-210.000
1505.6000, -82.999
1505.7000, -83.095
1505.8000, -82.283
1505.9000,-210.000
1506.0000, -80.559
1506.1000,-210.000
1506.2000, -95.008
1506.3000, -81.396
1506.4000, -85.315
1506.5000, -82.013
1506.6000, -81.962
1506.7000, -82.210
1506.8000,-210.000
1506.9000, -81.772
1507.0000, -82.629
1507.1000, -81.828
1507.2000,-107.587
1507.3000, -81.466
1507.4000, -86.423
1507.5000, -82.936
1507.6000, -84.327
1507.7000, -82.057
1507.8000, -83.409
1507.9000, -85.397
1508.0000, -90.705
1508.1000, -87.918
1508.2000, -85.104
1508.3000, -83.857
1508.4000, -81.618
1508.5000, -87.627
1508.6000, -81.571
1508.7000, -83.843
1508.8000, -86.388
1508.9000, -80.221
1509.0000, -85.331
1509.1000, -88.635
1509.2000, -80.818
1509.3000,-210.000
1509.4000, -81.964
1509.5000, -83.328
1509.6000, -81.523
1509.7000, -95.305
1509.8000, -85.888
1509.9000, -80.153
1510.0000, -87.409
1510.1000, -88.154
1510.2000, -84.843
1510.3000, -81.884
1510.4000, -81.614
1510.5000, -84.896
1510.6000, -81.989
1510.7000, -86.515
1510.8000, -91.647
1510.9000,-210.000
1511.0000, -91.526
1511.1000, -84.613
1511.2000, -86.940
1511.3000, -82.877
1511.4000, -83.303
1511.5000, -87.323
1511.6000, -83.285
1511.7000, -87.157
1511.8000, -84.072
1511.9000, -87.454
1512.0000, -81.041
1512.1000, -93.712
1512.2000, -81.838
1512.3000, -84.388
1512.4000, -82.999
1512.5000, -81.221
1512.6000, -83.370
1512.7000, -83.609
1512.8000, -89.402
1512.9000, -81.571
1513.0000, -89.475
1513.1000, -83.009
1513.2000, -82.982
1513.3000, -85.179
1513.4000, -82.916
1513.5000, -82.626
1513.6000, -85.334
1513.7000, -82.569
1513.8000, -89.305
1513.9000, -82.537
1514.0000, -81.661
1514.1000, -83.226
1514.2000, -84.335
1514.3000, -84.346
1514.4000, -82.853
1514.5000, -82.556
1514.6000, -80.574
1514.7000, -89.308
1514.8000, -84.597
1514.9000, -79.351
1515.0000, -85.061
1515.1000, -85.116
1515.2000, -86.181
1515.3000, -82.922
1515.4000, -85.731
1515.5000, -82.903
1515.6000, -82.746
1515.7000, -84.600
1515.8000, -83.363
1515.9000, -85.150
1516.0000, -83.215
1516.1000, -84.034
1516.2000, -83.715
1516.3000, -82.931
1516.4000, -84.441
1516.5000, -83.303
1516.6000, -84.903
1516.7000, -81.649
1516.8000, -85.800
1516.9000, -84.962
1517.0000, -85.073
1517.1000, -83.633
1517.2000, -82.362
1517.3000, -82.278
1517.4000, -82.038
1517.5000,-210.000
1517.6000, -82.909
1517.7000, -83.070
1517.8000, -83.939
1517.9000, -83.062
1518.0000, -83.999
1518.1000, -83.589
1518.2000, -90.169
1518.3000, -82.524
1518.4000, -83.598
1518.5000, -81.743
1518.6000, -82.669
1518.7000, -85.494
1518.8000, -82.951
1518.9000, -83.596
1519.0000, -85.564
1519.1000, -82.720
1519.2000, -84.415
1519.3000, -85.186
1519.4000,-210.000
1519.5000, -82.488
1519.6000, -81.201
1519.7000, -86.066
1519.8000, -80.985
1519.9000, -83.446
1520.0000,-210.000
1520.1000, -80.034
1520.2000, -84.965
1520.3000, -84.525
1520.4000, -79.706
1520.5000, -84.397
1520.6000, -90.693
1520.7000, -87.097
1520.8000, -83.497
1520.9000, -85.235
1521.0000, -83.179
1521.1000, -90.818
1521.2000, -80.850
1521.3000,-210.000
1521.4000, -82.652
1521.5000, -84.652
1521.6000, -84.016
1521.7000, -82.268
1521.8000, -83.173
1521.9000, -83.482
1522.0000, -83.246
1522.1000, -81.633
1522.2000, -83.568
1522.3000, -87.398
1522.4000, -81.528
1522.5000, -82.926
1522.6000, -82.364
1522.7000, -84.053
1522.8000, -81.768
1522.9000, -83.803
1523.0000, -83.679
1523.1000, -84.657
1523.2000, -90.921
1523.3000, -81.737
1523.4000, -82.803
1523.5000, -83.306
1523.6000, -82.567
1523.7000, -84.984
1523.8000, -96.023
1523.9000, -82.020
1524.0000, -83.286
1524.1000, -83.354
1524.2000, -83.580
1524.3000, -81.359
1524.4000, -82.869
1524.5000, -83.669
1524.6000, -94.354
1524.7000, -83.544
1524.8000, -83.266
1524.9000, -82.936
1525.0000, -87.127
1525.1000, -84.847
1525.2000, -83.340
1525.3000, -83.145
1525.4000, -83.601
1525.5000, -85.372
1525.6000, -85.158
1525.7000, -85.186
1525.8000, -83.870
1525.9000, -81.710
1526.0000, -86.504
1526.1000, -85.201
1526.2000, -84.211
1526.3000, -82.356
1526.4000, -85.713
1526.5000, -83.517
1526.6000, -82.086
1526.7000, -81.362
1526.8000, -86.570
1526.9000, -85.338
1527.0000, -82.895
1527.1000, -83.255
1527.2000, -82.607
1527.3000, -82.614
1527.4000, -84.014
1527.5000, -82.270
1527.6000, -86.812
1527.7000, -85.467
1527.8000, -81.108
1527.9000, -84.684
1528.0000, -85.762
1528.1000, -82.115
1528.2000, -82.276
1528.3000, -82.729
1528.4000, -81.041
1528.5000, -88.372
1528.6000, -81.332
1528.7000,-210.000
1528.8000, -78.887
1528.9000, -85.094
1529.0000, -84.339
1529.1000, -81.386
1529.2000, -81.410
1529.3000, -80.672
1529.4000,-210.000
1529.5000, -80.118
1529.6000,-210.000
1529.7000, -87.092
1529.8000, -87.674
1529.9000, -81.806
1530.0000, -83.962
1530.1000, -83.828
1530.2000, -79.715
1530.3000, -85.142
1530.4000, -96.227
1530.5000, -80.843
1530.6000,-210.000
1530.7000, -84.204
1530.8000, -81.781
1530.9000, -87.794
1531.0000, -81.187
1531.1000, -80.120
1531.2000,-210.000
1531.3000, -83.297
1531.4000, -85.996
1531.5000, -83.247
1531.6000, -80.480
1531.7000, -97.628
1531.8000, -82.351
1531.9000, -83.962
1532.0000, -84.200
1532.1000, -86.984
1532.2000, -81.728
1532.3000, -82.876
1532.4000,-210.000
1532.5000, -82.472
1532.6000, -81.883
1532.7000, -85.701
1532.8000, -83.679
1532.9000, -82.237
1533.0000, -92.105
1533.1000, -84.950
1533.2000, -86.824
1533.3000, -81.758
1533.4000, -87.630
1533.5000, -82.545
1533.6000, -85.148
1533.7000, -83.905
1533.8000, -83.093
1533.9000, -84.748
1534.0000, -83.089
1534.1000, -83.608
1534.2000, -85.910
1534.3000, -86.214
1534.4000, -84.198
1534.5000, -87.182
1534.6000, -84.911
1534.7000, -87.388
1534.8000, -81.533
1534.9000, -85.777
1535.0000, -82.732
1535.1000, -80.501
1535.2000, -84.478
1535.3000, -86.221
1535.4000, -85.161
1535.5000, -85.615
1535.6000, -82.848
1535.7000, -84.744
1535.8000, -84.539
1535.9000, -91.485
1536.0000, -86.891
1536.1000, -81.342
1536.2000, -83.162
1536.3000, -82.660
1536.4000, -90.363
1536.5000, -83.585
1536.6000, -83.799
1536.7000, -84.709
1536.8000, -81.878
1536.9000, -82.299
1537.0000, -85.434
1537.1000, -83.480
1537.2000, -82.375
1537.3000, -86.394
1537.4000, -84.245
1537.5000, -81.649
1537.6000,-210.000
1537.7000, -82.645
1537.8000, -88.236
1537.9000, -84.907
1538.0000, -80.158
1538.1000, -83.973
1538.2000, -85.412
1538.3000, -88.702
1538.4000, -79.891
1538.5000, -81.806
1538.6000, -84.504
1538.7000, -94.736
1538.8000, -85.165
1538.9000, -80.810
1539.0000, -84.570
1539.1000, -82.698
1539.2000,-210.000
1539.3000, -82.847
1539.4000, -82.008
1539.5000, -84.822
1539.6000, -80.783
1539.7000, -84.234
1539.8000, -85.500
1539.9000, -82.143
1540.0000, -86.281
1540.1000, -82.057
1540.2000, -83.896
1540.3000, -82.464
1540.4000, -89.691
1540.5000, -86.374
1540.6000, -85.106
1540.7000, -82.999
1540.8000,-210.000
1540.9000, -82.255
1541.0000, -81.113
1541.1000,-210.000
1541.2000, -84.515
1541.3000, -83.429
1541.4000, -80.479
1541.5000,-210.000
1541.6000, -85.360
1541.7000, -79.139
1541.8000,-210.000
1541.9000,-210.000
1542.0000, -82.801
1542.1000, -81.588
1542.2000, -83.441
1542.3000, -84.225
1542.4000, -84.194
1542.5000, -84.671
1542.6000, -82.257
1542.7000, -85.036
1542.8000, -84.526
1542.9000, -84.744
1543.0000, -81.179
1543.1000,-210.000
1543.2000, -83.886
1543.3000, -84.835
1543.4000, -87.111
1543.5000, -82.413
1543.6000, -83.329
1543.7000, -85.183
1543.8000, -80.447
1543.9000, -97.952
1544.0000, -81.745
1544.1000, -85.305
1544.2000, -82.549
1544.3000, -81.706
1544.4000, -88.921
1544.5000, -84.725
1544.6000,-210.000
1544.7000, -81.076
1544.8000, -86.282
1544.9000, -80.899
1545.0000, -87.359
1545.1000, -81.316
1545.2000,-210.000
1545.3000, -82.336
1545.4000, -82.572
1545.5000,-210.000
1545.6000, -81.712
1545.7000, -84.397
1545.8000,-210.000
1545.9000, -82.326
1546.0000, -81.506
1546.1000, -85.930
1546.2000, -82.211
1546.3000,-210.000
1546.4000, -85.307
1546.5000, -83.211
1546.6000, -86.893
1546.7000, -83.335
1546.8000, -81.582
1546.9000, -82.715
1547.0000, -85.690
1547.1000, -83.591
1547.2000, -82.567
1547.3000, -87.518
1547.4000, -81.940
1547.5000, -81.189
1547.6000, -81.055
1547.7000,-210.000
1547.8000, -83.557
1547.9000, -81.367
1548.0000, -87.676
1548.1000, -83.449
1548.2000, -84.525
1548.3000, -82.389
1548.4000, -84.684
1548.5000, -81.751
1548.6000, -85.884
1548.7000, -82.952
1548.8000, -83.931
1548.9000, -81.813
1549.0000, -86.193
1549.1000, -82.502
1549.2000, -85.119
1549.3000, -78.735
1549.4000, -92.594
1549.5000, -83.447
1549.6000, -89.230
1549.7000, -84.180
1549.8000, -84.183
1549.9000, -78.362
1550.0000,-210.000
1550.1000, -80.299
1550.2000, -80.882
1550.3000,-210.000
1550.4000, -85.195
1550.5000, -83.574
1550.6000, -83.560
1550.7000, -82.609
1550.8000, -86.476
1550.9000, -84.637
1551.0000, -83.544
1551.1000, -81.430
1551.2000, -84.951
1551.3000, -83.744
1551.4000, -85.191
1551.5000, -81.280
1551.6000, -83.508
1551.7000, -84.052
1551.8000, -86.900
1551.9000, -82.034
1552.0000, -82.015
1552.1000, -84.789
1552.2000, -81.836
1552.3000, -89.173
1552.4000, -86.787
1552.5000, -82.170
1552.6000, -82.933
1552.7000, -82.131
1552.8000, -84.398
1552.9000, -88.443
1553.0000, -81.610
1553.1000, -81.981
1553.2000, -84.845
1553.3000, -85.439
1553.4000, -82.441
1553.5000, -82.267
1553.6000, -82.342
1553.7000, -82.794
1553.8000, -88.313
1553.9000, -82.439
1554.0000, -85.189
1554.1000, -84.184
1554.2000, -83.578
1554.3000, -80.896
1554.4000, -83.330
1554.5000, -82.987
1554.6000, -82.229
1554.7000, -82.248
1554.8000, -85.186
1554.9000, -86.014
1555.0000, -83.635
1555.1000, -83.864
1555.2000, -81.953
1555.3000, -81.833
1555.4000, -82.590
1555.5000, -84.453
1555.6000, -83.909
1555.7000, -83.569
1555.8000,-210.000
1555.9000, -81.516
1556.0000, -93.060
1556.1000, -82.562
1556.2000, -82.406
1556.3000, -82.674
1556.4000, -81.832
1556.5000, -88.511
1556.6000, -82.876
1556.7000, -83.125
1556.8000, -82.878
1556.9000, -84.974
1557.0000, -84.815
1557.1000, -84.314
1557.2000, -81.921
1557.3000, -84.629
1557.4000, -84.477
1557.5000, -83.006
1557.6000, -84.529
1557.7000, -83.930
1557.8000, -81.562
1557.9000, -87.191
1558.0000, -82.708
1558.1000, -83.584
1558.2000, -80.618
1558.3000,-210.000
1558.4000, -89.609
1558.5000, -86.672
1558.6000, -82.736
1558.7000, -92.600
1558.8000, -83.266
1558.9000, -83.036
1559.0000, -84.208
1559.1000, -84.329
1559.2000, -83.355
1559.3000, -84.294
1559.4000, -83.751
1559.5000, -79.974
1559.6000, -81.543
1559.7000, -84.960
1559.8000, -91.043
1559.9000, -80.371
1560.0000, -83.272
1560.1000, -89.810
1560.2000, -81.753
1560.3000, -85.328
1560.4000, -80.832
1560.5000, -82.575
1560.6000, -83.509
1560.7000, -84.143
1560.8000,-210.000
1560.9000, -82.365
1561.0000, -91.149
1561.1000, -86.536
1561.2000, -85.627
1561.3000, -82.673
1561.4000, -82.158
1561.5000, -84.604
1561.6000, -84.050
1561.7000, -83.819
1561.8000, -82.102
1561.9000, -85.168
1562.0000, -86.418
1562.1000, -80.671
1562.2000, -86.829
1562.3000,-210.000
1562.4000, -83.749
1562.5000, -81.715
1562.6000,-210.000
1562.7000, -82.569
1562.8000, -80.962
1562.9000, -84.127
1563.0000, -81.343
1563.1000, -90.300
1563.2000, -89.454
1563.3000, -81.552
1563.4000, -83.378
1563.5000, -81.276
1563.6000, -84.326
1563.7000, -82.472
1563.8000, -81.519
1563.9000, -88.017
1564.0000, -82.730
1564.1000, -82.594
1564.2000,-210.000
1564.3000, -78.221
1564.4000,-210.000
1564.5000, -82.400
1564.6000, -85.262
1564.7000, -83.529
1564.8000, -86.711
1564.9000, -81.790
1565.0000, -81.506
1565.1000, -82.704
1565.2000, -85.238
1565.3000, -81.196
1565.4000, -85.145
1565.5000, -82.313
1565.6000, -83.516
1565.7000, -87.742
1565.8000, -80.196
1565.9000, -86.204
1566.0000, -83.504
1566.1000, -81.712
1566.2000, -89.753
1566.3000, -81.943
1566.4000, -88.015
1566.5000, -88.706
1566.6000, -83.311
1566.7000, -82.287
1566.8000, -84.472
1566.9000, -82.822
1567.0000, -80.341
1567.1000, -91.317
1567.2000, -83.043
1567.3000, -84.214
1567.4000, -88.646
1567.5000, -83.061
1567.6000, -86.299
1567.7000, -83.121
1567.8000, -83.297
1567.9000, -85.563
1568.0000, -81.764
1568.1000, -81.634
1568.2000, -83.807
1568.3000, -87.389
1568.4000, -80.665
1568.5000,-210.000
1568.6000, -89.115
1568.7000, -83.437
1568.8000, -87.855
1568.9000, -81.341
1569.0000, -80.087
1569.1000, -84.130
1569.2000, -84.443
1569.3000, -81.793
1569.4000, -85.968
1569.5000, -85.381
1569.6000, -83.878
1569.7000, -82.747
1569.8000, -81.783
1569.9000, -85.312
1570.0000, -84.652
1570.1000, -87.541
1570.2000, -82.476
1570.3000, -81.703
1570.4000, -87.074
1570.5000, -82.928
1570.6000, -84.184
1570.7000, -83.960
1570.8000, -82.765
1570.9000, -84.013
1571.0000, -86.980
1571.1000, -82.359
1571.2000, -85.017
1571.3000, -81.516
1571.4000, -80.343
1571.5000,-210.000
1571.6000, -85.919
1571.7000, -84.369
1571.8000, -80.244
1571.9000, -84.864
1572.0000, -83.708
1572.1000, -82.635
1572.2000, -82.911
1572.3000, -81.388
1572.4000,-210.000
1572.5000, -80.914
1572.6000, -83.148
1572.7000, -81.114
1572.8000,-210.000
1572.9000, -87.355
1573.0000, -78.121
1573.1000, -91.857
1573.2000, -82.391
1573.3000, -84.323
1573.4000, -91.730
1573.5000, -82.411
1573.6000, -81.860
1573.7000, -82.326
1573.8000, -82.426
1573.9000, -84.710
1574.0000, -83.108
1574.1000, -82.478
1574.2000, -91.765
1574.3000, -85.140
1574.4000, -84.416
1574.5000, -84.269
1574.6000, -82.150
1574.7000,-210.000
1574.8000, -82.113
1574.9000, -83.021
1575.0000,-210.000
1575.1000, -81.367
1575.2000, -83.123
1575.3000, -81.146
1575.4000, -82.669
1575.5000, -84.592
1575.6000, -86.482
1575.7000, -81.054
1575.8000, -90.902
1575.9000, -86.774
1576.0000, -83.164
1576.1000, -82.499
1576.2000, -81.043
1576.3000, -86.490
1576.4000, -83.007
1576.5000, -81.192
1576.6000, -81.763
1576.7000, -86.418
1576.8000, -83.460
1576.9000, -82.687
1577.0000, -85.565
1577.1000, -82.230
1577.2000, -83.121
1577.3000, -82.356
1577.4000, -85.471
1577.5000, -86.121
1577.6000, -79.879
1577.7000, -84.103
1577.8000, -84.409
1577.9000,-210.000
1578.0000, -81.754
1578.1000, -83.089
1578.2000, -83.676
1578.3000, -86.775
1578.4000, -82.232
1578.5000, -88.809
1578.6000, -80.823
1578.7000, -81.783
1578.8000, -84.235
1578.9000, -86.675
1579.0000, -78.795
1579.1000, -84.652
1579.2000, -83.234
1579.3000, -98.764
1579.4000, -84.654
1579.5000, -80.723
1579.6000, -81.503
1579.7000, -85.765
1579.8000, -87.758
1579.9000,-210.000
1580.0000, -79.000
1580.1000, -88.825
1580.2000, -82.731
1580.3000, -82.991
1580.4000, -90.211
1580.5000, -82.734
1580.6000, -82.927
1580.7000, -84.388
1580.8000, -84.279
1580.9000, -83.811
1581.0000, -82.222
1581.1000, -82.178
1581.2000, -82.084
1581.3000, -84.641
1581.4000, -83.832
1581.5000, -84.266
1581.6000, -83.774
1581.7000, -87.770
1581.8000, -83.583
1581.9000, -81.662
1582.0000, -84.416
1582.1000, -81.934
1582.2000, -80.008
1582.3000,-210.000
1582.4000, -82.393
1582.5000, -83.551
1582.6000, -80.360
1582.7000, -86.376
1582.8000, -84.315
1582.9000, -84.954
1583.0000, -82.767
1583.1000, -82.459
1583.2000, -93.634
1583.3000, -83.345
1583.4000,-210.000
1583.5000, -80.079
1583.6000, -81.474
1583.7000, -82.595
1583.8000, -82.094
1583.9000, -82.583
1584.0000, -83.867
1584.1000, -84.527
1584.2000, -82.559
1584.3000, -87.140
1584.4000, -87.986
1584.5000, -82.105
1584.6000, -82.552
1584.7000, -84.632
1584.8000, -82.725
1584.9000, -82.113
1585.0000, -81.869
1585.1000, -89.326
1585.2000, -83.464
1585.3000, -79.758
1585.4000, -85.965
1585.5000, -81.267
1585.6000, -81.807
1585.7000, -92.287
1585.8000, -82.647
1585.9000, -83.121
1586.0000, -81.406
1586.1000, -82.509
1586.2000, -83.714
1586.3000, -81.926
1586.4000, -85.485
1586.5000, -81.881
1586.6000, -83.491
1586.7000, -85.451
1586.8000, -82.003
1586.9000, -85.055
1587.0000, -80.367
1587.1000, -84.311
1587.2000, -83.429
1587.3000, -88.554
1587.4000, -80.171
1587.5000, -92.592
1587.6000, -80.214
1587.7000, -83.361
1587.8000, -89.271
1587.9000, -82.948
1588.0000, -82.536
1588.1000, -80.843
1588.2000, -79.785
1588.3000, -90.458
1588.4000, -86.355
1588.5000, -84.855
1588.6000, -81.362
1588.7000, -93.626
1588.8000, -84.717
1588.9000, -82.307
1589.0000, -84.040
1589.1000, -83.091
1589.2000, -80.007
1589.3000, -81.957
1589.4000, -82.390
1589.5000,-210.000
1589.6000, -82.494
1589.7000, -84.450
1589.8000, -85.587
1589.9000, -85.943
1590.0000, -81.775
1590.1000, -79.384
1590.2000,-210.000
1590.3000, -82.728
1590.4000, -82.371
1590.5000, -86.787
1590.6000, -83.683
1590.7000, -77.895
1590.8000, -93.394
1590.9000, -82.064
1591.0000, -84.845
1591.1000, -79.869
1591.2000, -80.128
1591.3000, -88.829
1591.4000, -83.311
1591.5000, -81.267
1591.6000, -91.324
1591.7000, -82.410
1591.8000, -81.843
1591.9000,-210.000
1592.0000, -83.397
1592.1000, -82.576
1592.2000, -80.685
1592.3000, -80.652
1592.4000, -86.776
1592.5000, -87.501
1592.6000, -80.068
1592.7000, -80.569
1592.8000,-210.000
1592.9000, -83.399
1593.0000, -78.896
1593.1000, -92.315
1593.2000, -81.503
1593.3000,-210.000
1593.4000, -81.709
1593.5000, -81.340
1593.6000, -85.537
1593.7000, -81.594
1593.8000, -82.411
1593.9000, -83.341
1594.0000, -86.333
1594.1000, -82.422
1594.2000, -80.993
1594.3000, -86.708
1594.4000, -80.925
1594.5000, -83.357
1594.6000, -83.533
1594.7000, -82.828
1594.8000, -81.222
1594.9000,-210.000
1595.0000, -82.521
1595.1000, -81.941
1595.2000, -84.710
1595.3000, -81.767
1595.4000, -92.219
1595.5000, -81.682
1595.6000, -84.120
1595.7000, -83.771
1595.8000, -81.291
1595.9000, -83.049
1596.0000, -85.749
1596.1000, -82.458
1596.2000, -86.169
1596.3000, -83.645
1596.4000, -83.762
1596.5000, -82.366
1596.6000, -82.678
1596.7000, -87.212
1596.8000, -81.974
1596.9000, -81.214
1597.0000, -83.509
1597.1000, -82.078
1597.2000,-210.000
1597.3000, -82.101
1597.4000, -81.362
1597.5000, -84.882
1597.6000, -82.843
1597.7000, -83.924
1597.8000, -80.684
1597.9000, -84.516
1598.0000, -82.064
1598.1000, -87.076
1598.2000, -84.098
1598.3000, -82.348
1598.4000, -84.022
1598.5000, -84.061
1598.6000, -80.120
1598.7000, -84.227
1598.8000, -81.301
1598.9000, -84.903
1599.0000,-210.000
1599.1000, -82.835
1599.2000, -81.272
1599.3000, -83.163
1599.4000, -81.587
1599.5000, -83.268
1599.6000, -89.466
1599.7000, -81.418
1599.8000, -82.204
1599.9000, -86.584
1600.0000, -83.208
1600.1000, -84.216
1600.2000, -81.867
1600.3000, -81.123
1600.4000, -84.443
1600.5000, -80.148
1600.6000, -85.514
1600.7000, -82.333
1600.8000, -91.958
1600.9000, -82.581
1601.0000, -77.982
1601.1000,-210.000
1601.2000, -80.221
1601.3000, -87.011
1601.4000, -82.630
1601.5000, -85.613
1601.6000, -84.065
1601.7000, -83.234
1601.8000, -80.460
1601.9000, -85.654
1602.0000, -91.162
1602.1000, -81.003
1602.2000, -82.556
1602.3000, -88.964
1602.4000, -82.357
1602.5000, -84.301
1602.6000, -94.152
1602.7000, -81.248
1602.8000, -86.542
1602.9000, -81.951
1603.0000, -84.034
1603.1000, -86.095
1603.2000, -80.936
1603.3000, -82.387
1603.4000, -87.076
1603.5000, -82.466
1603.6000, -84.732
1603.7000, -82.893
1603.8000, -84.678
1603.9000, -82.128
1604.0000, -83.997
1604.1000, -80.995
1604.2000, -82.357
1604.3000, -82.984
1604.4000, -82.759
1604.5000, -89.744
1604.6000, -81.286
1604.7000, -81.409
1604.8000, -80.410
1604.9000, -90.493
1605.0000, -79.159
1605.1000, -93.241
1605.2000, -78.615
1605.3000, -91.612
1605.4000, -89.951
1605.5000, -78.712
1605.6000,-210.000
1605.7000, -80.013
1605.8000, -80.013
1605.9000,-210.000
1606.0000, -78.511
1606.1000, -88.328
1606.2000, -81.820
1606.3000,-210.000
1606.4000, -80.661
1606.5000, -79.091
1606.6000, -83.159
1606.7000,-210.000
1606.8000, -83.911
1606.9000, -80.780
1607.0000, -84.893
1607.1000, -80.594
1607.2000,-210.000
1607.3000, -79.195
1607.4000, -88.234
1607.5000, -81.590
1607.6000, -84.999
1607.7000,-210.000
1607.8000, -82.722
1607.9000, -82.016
1608.0000, -93.145
1608.1000, -81.781
1608.2000, -92.671
1608.3000, -80.272
1608.4000, -83.838
1608.5000, -86.615
1608.6000, -88.664
1608.7000, -82.261
1608.8000, -81.780
1608.9000, -81.430
1609.0000, -83.970
1609.1000, -82.949
1609.2000, -80.891
1609.3000, -82.431
1609.4000, -83.954
1609.5000, -83.394
1609.6000, -81.728
1609.7000, -84.994
1609.8000, -84.177
1609.9000, -82.940
1610.0000, -84.974
1610.1000, -82.400
1610.2000, -81.805
1610.3000, -82.777
1610.4000, -86.514
1610.5000, -84.328
1610.6000, -82.168
1610.7000, -82.946
1610.8000, -83.964
1610.9000, -81.079
1611.0000,-210.000
1611.1000, -78.863
1611.2000, -83.256
1611.3000, -91.950
1611.4000, -81.902
1611.5000, -87.527
1611.6000, -79.760
1611.7000, -82.283
1611.8000, -81.788
1611.9000, -82.349
1612.0000, -79.845
1612.1000,-210.000
1612.2000,-210.000
1612.3000, -82.470
1612.4000, -85.422
1612.5000, -81.268
1612.6000, -84.412
1612.7000, -85.478
1612.8000, -82.708
1612.9000, -79.214
1613.0000, -91.102
1613.1000, -84.143
1613.2000, -81.828
1613.3000, -94.022
1613.4000, -81.607
1613.5000, -78.997
1613.6000, -86.470
1613.7000, -80.916
1613.8000, -82.233
1613.9000, -87.265
1614.0000, -79.561
1614.1000, -82.954
1614.2000, -83.290
1614.3000,-210.000
1614.4000,-210.000
1614.5000, -81.233
1614.6000, -85.658
1614.7000, -78.105
1614.8000, -81.321
1614.9000, -88.587
1615.0000, -81.927
1615.1000, -80.670
1615.2000, -82.830
1615.3000, -84.190
1615.4000, -79.690
1615.5000, -82.600
1615.6000, -89.414
1615.7000, -83.216
1615.8000, -81.526
1615.9000, -80.102
1616.0000, -81.842
1616.1000, -80.980
1616.2000, -81.148
1616.3000, -82.391
1616.4000, -79.624
1616.5000, -84.489
1616.6000, -77.390
1616.7000, -85.681
1616.8000, -79.956
1616.9000, -80.245
1617.0000, -82.120
1617.1000, -78.200
1617.2000, -80.108
1617.3000, -80.224
1617.4000, -78.736
1617.5000, -81.890
1617.6000, -81.821
1617.7000, -79.042
1617.8000, -78.344
1617.9000, -80.217
1618.0000, -80.094
1618.1000, -78.974
1618.2000, -78.816
1618.3000, -79.435
1618.4000, -77.970
1618.5000, -82.049
1618.6000, -78.712
1618.7000, -78.014
1618.8000, -77.852
1618.9000, -77.713
1619.0000, -78.101
1619.1000, -77.830
1619.2000, -79.068
1619.3000, -77.345
1619.4000, -77.440
1619.5000, -77.393
1619.6000, -79.377
1619.7000, -77.936
1619.8000, -78.073
1619.9000, -77.974
1620.0000, -78.219
1620.1000, -77.898
1620.2000, -83.340
1620.3000, -81.416
1620.4000, -85.087
1620.5000, -81.532
1620.6000, -82.075
1620.7000, -80.564
1620.8000, -85.451
1620.9000, -84.013
1621.0000, -81.000
1621.1000, -79.405
1621.2000, -84.369
1621.3000, -83.774
1621.4000, -79.919
1621.5000, -84.613
1621.6000, -79.083
1621.7000,-210.000
1621.8000, -84.483
1621.9000, -81.547
1622.0000, -81.799
1622.1000,-210.000
1622.2000, -78.856
1622.3000, -85.270
1622.4000, -87.174
1622.5000, -82.852
1622.6000, -80.211
1622.7000, -81.078
1622.8000, -82.481
1622.9000, -83.116
1623.0000, -81.573
1623.1000, -81.715
1623.2000, -83.279
1623.3000, -83.898
1623.4000, -83.722
1623.5000, -80.933
1623.6000, -87.576
1623.7000, -82.377
1623.8000, -80.551
1623.9000, -83.703
1624.0000, -80.020
1624.1000, -83.587
1624.2000, -82.489
1624.3000, -81.988
1624.4000, -80.124
1624.5000, -81.368
1624.6000, -78.527
1624.7000, -87.983
1624.8000, -81.278
1624.9000, -87.814
1625.0000, -79.722
1625.1000, -82.324
1625.2000, -78.763
1625.3000,-210.000
1625.4000, -79.763
1625.5000, -87.439
1625.6000, -81.864
1625.7000, -78.094
1625.8000, -82.487
1625.9000, -84.317
1626.0000, -83.456
1626.1000, -80.049
1626.2000, -85.501
1626.3000, -80.683
1626.4000, -82.606
1626.5000, -78.222
1626.6000,-210.000
1626.7000, -76.529
1626.8000, -83.548
1626.9000, -79.202
1627.0000, -83.764
1627.1000, -85.690
1627.2000, -82.354
1627.3000, -78.933
1627.4000, -87.708
1627.5000, -79.999
1627.6000,-103.049
1627.7000, -84.693
1627.8000, -80.535
1627.9000, -80.067
1628.0000, -79.931
1628.1000,-210.000
1628.2000, -81.544
1628.3000, -80.571
1628.4000, -79.155
1628.5000, -81.871
1628.6000, -83.061
1628.7000, -79.845
1628.8000, -81.337
1628.9000, -81.719
1629.0000, -83.394
1629.1000, -80.138
1629.2000, -83.597
1629.3000, -79.957
1629.4000, -77.560
1629.5000,-210.000
1629.6000, -81.801
1629.7000, -82.619
1629.8000, -83.432
1629.9000, -84.172
1630.0000, -82.620
1630.1000, -81.192
1630.2000, -81.282
1630.3000, -79.116
1630.4000, -89.962
1630.5000, -81.805
1630.6000, -82.239
1630.7000, -87.550
1630.8000, -82.761
1630.9000, -81.538
1631.0000, -80.196
1631.1000, -84.380
1631.2000, -80.395
1631.3000, -78.035
1631.4000,-210.000
1631.5000, -80.049
1631.6000, -78.699
1631.7000, -80.882
1631.8000, -80.155
1631.9000, -81.032
1632.0000, -78.345
1632.1000, -82.689
1632.2000, -80.316
1632.3000, -84.517
1632.4000,-210.000
1632.5000, -82.248
1632.6000, -82.493
1632.7000, -82.243
1632.8000, -81.470
1632.9000, -82.135
1633.0000, -76.939
1633.1000, -78.731
1633.2000, -81.463
1633.3000,-210.000
1633.4000, -82.034
1633.5000,-210.000
1633.6000, -79.087
1633.7000, -81.060
1633.8000, -88.274
1633.9000, -80.921
1634.0000,-210.000
1634.1000, -91.943
1634.2000, -82.488
1634.3000, -80.175
1634.4000, -83.835
1634.5000, -79.231
1634.6000, -82.598
1634.7000, -80.726
1634.8000, -84.729
1634.9000, -81.863
1635.0000, -81.423
1635.1000, -81.232
1635.2000, -85.584
1635.3000, -81.533
1635.4000, -81.875
1635.5000, -81.808
1635.6000, -80.158
1635.7000, -80.330
1635.8000, -79.490
1635.9000, -95.503
1636.0000, -78.935
1636.1000, -79.056
1636.2000, -80.732
1636.3000, -78.859
1636.4000, -78.538
1636.5000, -87.774
1636.6000, -91.168
1636.7000, -81.945
1636.8000, -80.974
1636.9000, -79.502
1637.0000, -78.980
1637.1000, -86.529
1637.2000, -81.205
1637.3000, -95.468
1637.4000, -77.752
1637.5000, -79.304
1637.6000, -85.551
1637.7000, -81.855
1637.8000,-210.000
1637.9000, -76.808
1638.0000, -79.735
1638.1000, -81.518
1638.2000, -81.559
1638.3000, -88.937
1638.4000, -80.561
1638.5000, -78.949
1638.6000, -80.062
1638.7000, -78.673
1638.8000, -84.581
1638.9000, -79.797
1639.0000, -84.254
1639.1000, -77.733
1639.2000, -80.338
1639.3000, -82.584
1639.4000,-210.000
1639.5000, -77.659
1639.6000, -82.151
1639.7000,-210.000
1639.8000, -80.967
1639.9000, -77.056
1640.0000, -79.223
1640.1000, -78.670
1640.2000, -77.562
1640.3000, -79.727
1640.4000, -85.987
1640.5000,-210.000
1640.6000, -76.744
1640.7000, -79.510
1640.8000,-210.000
1640.9000, -75.132
1641.0000, -82.192
1641.1000, -76.783
1641.2000, -78.214
1641.3000,-210.000
1641.4000, -81.493
1641.5000, -82.045
1641.6000, -82.419
1641.7000, -78.771
1641.8000, -81.835
1641.9000, -78.401
1642.0000, -77.015
1642.1000, -79.604
1642.2000, -78.221
1642.3000, -80.821
1642.4000, -76.387
1642.5000, -80.602
1642.6000, -83.078
1642.7000, -78.279
1642.8000, -81.817
1642.9000, -83.704
1643.0000, -77.273
1643.1000, -82.037
1643.2000, -88.053
1643.3000, -76.340
1643.4000, -82.123
1643.5000, -83.805
1643.6000, -79.936
1643.7000, -79.038
1643.8000, -77.497
1643.9000, -81.819
1644.0000, -77.898
1644.1000, -78.476
1644.2000, -95.274
1644.3000, -74.847
1644.4000, -76.885
1644.5000, -83.028
1644.6000, -79.907
1644.7000, -81.404
1644.8000, -76.204
1644.9000, -78.623
1645.0000, -81.739
1645.1000, -76.449
1645.2000, -78.774
1645.3000, -91.221
1645.4000, -84.145
1645.5000, -78.023
1645.6000, -80.721
1645.7000, -82.359
1645.8000, -78.227
1645.9000, -78.938
1646.0000, -77.840
1646.1000, -78.804
1646.2000, -77.432
1646.3000, -77.726
1646.4000, -79.150
1646.5000, -77.393
1646.6000, -78.857
1646.7000, -76.350
1646.8000,-210.000
1646.9000, -81.938
1647.0000, -75.660
1647.1000, -78.728
1647.2000, -78.935
1647.3000, -79.662
1647.4000, -75.513
1647.5000, -76.060
1647.6000, -84.962
1647.7000, -77.475
1647.8000, -77.922
1647.9000, -77.439
1648.0000, -75.552
1648.1000,-210.000
1648.2000,-210.000
1648.3000, -74.089
1648.4000,-210.000
1648.5000, -79.144
1648.6000, -80.337
1648.7000, -77.963
1648.8000, -77.818
1648.9000, -76.423
1649.0000, -76.776
1649.1000, -79.956
1649.2000, -74.069
1649.3000, -77.359
1649.4000, -78.234
1649.5000, -79.332
1649.6000, -85.296
1649.7000, -74.898
1649.8000, -76.505
1649.9000, -77.085
1650.0000, -76.837
1650.1000, -81.836
1650.2000, -87.645
1650.3000, -73.537
1650.4000, -87.639
1650.5000, -75.912
1650.6000, -76.791
1650.7000, -76.898
1650.8000, -73.984
1650.9000, -78.183
1651.0000,-210.000
1651.1000, -75.070
1651.2000, -76.707
1651.3000, -74.898
1651.4000, -78.283
1651.5000, -78.508
1651.6000, -74.875
1651.7000, -75.544
1651.8000, -76.967
1651.9000, -73.752
1652.0000,-210.000
1652.1000, -74.266
1652.2000, -76.989
1652.3000, -74.402
1652.4000, -72.377
1652.5000, -76.435
1652.6000, -80.514
1652.7000, -73.756
1652.8000,-210.000
1652.9000, -75.781
1653.0000, -72.850
1653.1000, -79.823
1653.2000, -77.592
1653.3000, -79.863
1653.4000, -80.365
1653.5000, -73.786
1653.6000, -72.992
1653.7000, -74.718
1653.8000, -77.474
1653.9000, -73.043
1654.0000,-210.000
1654.1000, -74.533
1654.2000, -81.314
1654.3000, -75.044
1654.4000, -75.660
1654.5000, -75.344
1654.6000, -73.044
1654.7000,-210.000
1654.8000, -73.375
1654.9000, -76.098
1655.0000, -83.350
1655.1000, -75.977
1655.2000, -82.384
1655.3000, -80.060
1655.4000, -74.518
1655.5000, -78.743
1655.6000, -73.119
1655.7000, -73.884
1655.8000, -78.115
1655.9000, -79.771
1656.0000, -70.273
1656.1000,-210.000
1656.2000, -74.133
1656.3000, -73.135
1656.4000, -74.803
1656.5000, -76.683
1656.6000, -88.164
1656.7000, -72.228
1656.8000, -75.472
1656.9000, -73.987
1657.0000, -76.975
1657.1000, -79.184
1657.2000,-210.000
1657.3000, -76.461
1657.4000, -74.161
1657.5000, -74.291
1657.6000, -79.957
1657.7000, -77.817
1657.8000, -73.077
1657.9000, -74.316
1658.0000,-210.000
1658.1000, -75.450
1658.2000, -75.671
1658.3000, -73.985
1658.4000, -78.436
1658.5000, -74.327
1658.6000, -74.480
1658.7000, -73.114
1658.8000, -73.091
1658.9000, -82.480
1659.0000, -74.418
1659.1000, -75.028
1659.2000, -77.213
1659.3000, -78.385
1659.4000, -71.661
1659.5000, -99.114
1659.6000, -71.407
1659.7000, -74.483
1659.8000, -73.478
1659.9000, -82.337
1660.0000, -76.636
1660.1000, -77.382
1660.2000, -73.204
1660.3000, -78.608
1660.4000, -73.254
1660.5000, -78.900
1660.6000, -85.193
1660.7000, -74.545
1660.8000,-210.000
1660.9000, -73.183
1661.0000, -74.718
1661.1000, -76.356
1661.2000, -73.650
1661.3000, -71.812
1661.4000, -75.564
1661.5000, -71.804
1661.6000,-210.000
1661.7000, -69.674
1661.8000, -76.115
1661.9000,-210.000
1662.0000, -72.321
1662.1000, -72.186
1662.2000, -78.336
1662.3000, -73.026
1662.4000, -75.015
1662.5000, -71.182
1662.6000, -75.351
1662.7000, -72.395
1662.8000, -74.370
1662.9000, -77.728
1663.0000, -74.478
1663.1000, -75.254
1663.2000, -73.480
1663.3000, -71.406
1663.4000, -75.343
1663.5000, -72.231
1663.6000, -69.512
1663.7000,-210.000
1663.8000, -74.620
1663.9000, -73.873
1664.0000, -73.481
1664.1000, -74.793
1664.2000, -73.780
1664.3000, -74.456
1664.4000, -76.677
1664.5000, -71.829
1664.6000, -73.422
1664.7000, -78.208
1664.8000, -74.499
1664.9000, -72.393
1665.0000, -95.163
1665.1000, -70.967
1665.2000, -74.921
1665.3000, -79.602
1665.4000, -75.280
1665.5000, -70.524
1665.6000, -73.891
1665.7000, -83.773
1665.8000, -71.525
1665.9000, -72.544
1666.0000, -71.752
1666.1000, -76.283
1666.2000, -71.562
1666.3000, -74.419
1666.4000,-210.000
1666.5000, -72.315
1666.6000, -70.870
1666.7000, -73.159
1666.8000, -76.756
1666.9000, -76.249
1667.0000, -71.923
1667.1000, -75.537
1667.2000, -78.927
1667.3000, -71.125
1667.4000, -77.160
1667.5000, -71.947
1667.6000, -71.434
1667.7000, -74.848
1667.8000, -69.866
1667.9000,-210.000
1668.0000, -70.689
1668.1000, -73.614
1668.2000, -74.253
1668.3000, -69.466
1668.4000, -73.171
1668.5000, -75.045
1668.6000, -71.637
1668.7000, -71.520
1668.8000, -72.343
1668.9000, -72.878
1669.0000, -83.113
1669.1000, -70.148
1669.2000, -75.620
1669.3000, -75.720
1669.4000, -71.401
1669.5000, -71.071
1669.6000, -73.800
1669.7000, -71.375
1669.8000, -71.350
1669.9000, -70.347
1670.0000, -71.586
1670.1000, -78.378
1670.2000, -76.318
1670.3000, -72.661
1670.4000, -73.906
1670.5000, -70.842
1670.6000, -71.715
1670.7000, -70.625
1670.8000, -70.212
1670.9000, -73.523
1671.0000, -77.458
1671.1000, -70.637
1671.2000, -71.103
1671.3000, -70.287
1671.4000, -71.205
1671.5000, -68.640
1671.6000, -72.860
1671.7000, -70.910
1671.8000, -82.275
1671.9000, -70.725
1672.0000, -71.255
1672.1000, -70.150
1672.2000, -71.487
1672.3000, -73.562
1672.4000, -80.299
1672.5000, -69.793
1672.6000, -75.785
1672.7000, -76.321
1672.8000, -68.590
1672.9000, -71.262
1673.0000, -75.530
1673.1000, -77.660
1673.2000, -68.100
1673.3000, -76.007
1673.4000, -74.013
1673.5000, -70.167
1673.6000, -72.755
1673.7000, -71.097
1673.8000, -69.205
1673.9000, -73.329
1674.0000, -68.142
1674.1000,-210.000
1674.2000, -71.120
1674.3000, -72.372
1674.4000, -70.117
1674.5000, -71.554
1674.6000, -69.637
1674.7000,-210.000
1674.8000, -70.582
1674.9000, -72.821
1675.0000, -75.121
1675.1000, -70.517
1675.2000, -68.746
1675.3000, -71.863
1675.4000, -73.534
1675.5000, -67.410
1675.6000, -71.125
1675.7000, -70.510
1675.8000,-210.000
1675.9000, -70.003
1676.0000, -72.562
1676.1000, -69.965
1676.2000, -68.158
1676.3000, -69.341
1676.4000, -78.886
1676.5000, -71.489
1676.6000, -71.544
1676.7000, -73.539
1676.8000, -67.991
1676.9000, -70.475
1677.0000, -70.066
1677.1000, -68.007
1677.2000, -70.778
1677.3000, -71.032
1677.4000, -71.766
1677.5000, -69.245
1677.6000, -70.125
1677.7000, -70.981
1677.8000, -81.760
1677.9000, -67.793
1678.0000, -72.466
1678.1000,-210.000
1678.2000,-210.000
1678.3000, -65.596
1678.4000,-210.000
1678.5000, -68.471
1678.6000, -71.314
1678.7000, -65.121
1678.8000, -86.238
1678.9000,-210.000
1679.0000, -70.109
1679.1000, -71.790
1679.2000, -70.116
1679.3000,-210.000
1679.4000, -68.720
1679.5000, -66.673
1679.6000, -77.674
1679.7000, -71.550
1679.8000, -68.887
1679.9000, -67.030
1680.0000, -69.695
1680.1000, -76.298
1680.2000, -69.446
1680.3000, -79.027
1680.4000, -66.569
1680.5000,-210.000
1680.6000, -66.713
1680.7000, -70.309
1680.8000, -70.971
1680.9000, -71.227
1681.0000, -69.301
1681.1000, -69.264
1681.2000, -71.891
1681.3000, -75.930
1681.4000, -70.913
1681.5000, -67.676
1681.6000, -71.993
1681.7000, -66.056
1681.8000, -67.459
1681.9000, -67.552
1682.0000, -78.460
1682.1000,-210.000
1682.2000, -66.898
1682.3000, -67.943
1682.4000, -73.369
1682.5000, -69.125
1682.6000, -69.166
1682.7000, -68.608
1682.8000, -65.544
1682.9000, -69.026
1683.0000, -68.828
1683.1000, -68.851
1683.2000, -68.571
1683.3000, -70.528
1683.4000, -69.385
1683.5000, -68.597
1683.6000, -69.809
1683.7000, -80.101
1683.8000, -67.772
1683.9000, -69.184
1684.0000, -68.003
1684.1000, -72.110
1684.2000, -65.110
1684.3000, -69.854
1684.4000, -69.167
1684.5000, -68.870
1684.6000, -66.628
1684.7000, -70.339
1684.8000, -65.626
1684.9000, -67.166
1685.0000, -71.307
1685.1000, -65.852
1685.2000, -65.858
1685.3000,-210.000
1685.4000, -69.192
1685.5000, -65.660
1685.6000, -75.232
1685.7000, -65.595
1685.8000, -66.798
1685.9000, -78.843
1686.0000, -66.459
1686.1000, -65.004
1686.2000,-210.000
1686.3000, -65.767
1686.4000, -70.146
1686.5000, -65.447
1686.6000, -66.848
1686.7000,-210.000
1686.8000, -65.238
1686.9000, -67.691
1687.0000, -66.925
1687.1000, -66.999
1687.2000, -70.244
1687.3000, -67.963
1687.4000, -75.770
1687.5000, -67.981
1687.6000, -67.267
1687.7000, -68.179
1687.8000, -71.666
1687.9000, -71.102
1688.0000, -64.464
1688.1000, -73.104
1688.2000, -69.438
1688.3000, -66.193
1688.4000, -64.956
1688.5000, -70.347
1688.6000, -66.694
1688.7000, -66.028
1688.8000, -70.265
1688.9000, -65.960
1689.0000, -66.070
1689.1000, -79.463
1689.2000, -72.455
1689.3000, -65.991
1689.4000, -69.033
1689.5000, -71.616
1689.6000, -64.509
1689.7000, -74.587
1689.8000, -66.365
1689.9000, -66.500
1690.0000,-210.000
1690.1000, -65.794
1690.2000, -67.030
1690.3000, -66.188
1690.4000, -63.226
1690.5000, -71.782
1690.6000, -63.283
1690.7000, -66.542
1690.8000, -74.387
1690.9000, -69.352
1691.0000, -69.070
1691.1000, -64.436
1691.2000, -64.826
1691.3000, -68.802
1691.4000, -68.371
1691.5000, -66.608
1691.6000, -64.699
1691.7000, -67.056
1691.8000, -66.099
1691.9000, -65.845
1692.0000, -64.745
1692.1000,-210.000
1692.2000, -63.725
1692.3000,-210.000
1692.4000, -65.403
1692.5000, -65.118
1692.6000, -65.212
1692.7000, -70.557
1692.8000, -66.127
1692.9000, -66.223
1693.0000, -68.976
1693.1000, -67.277
1693.2000, -65.133
1693.3000, -71.952
1693.4000, -65.365
1693.5000, -64.453
1693.6000, -66.829
1693.7000, -67.125
1693.8000, -65.859
1693.9000,-210.000
1694.0000, -62.608
1694.1000, -67.808
1694.2000, -64.916
1694.3000, -67.113
1694.4000,-210.000
1694.5000, -68.786
1694.6000, -69.040
1694.7000, -65.251
1694.8000, -76.719
1694.9000, -65.377
1695.0000, -68.046
1695.1000, -72.173
1695.2000, -65.897
1695.3000, -66.910
1695.4000, -66.484
1695.5000, -68.693
1695.6000, -64.620
1695.7000, -66.235
1695.8000, -66.218
1695.9000, -67.801
1696.0000, -64.022
1696.1000, -68.521
1696.2000, -64.805
1696.3000, -65.396
1696.4000, -72.741
1696.5000, -67.369
1696.6000, -65.499
1696.7000, -68.340
1696.8000, -67.148
1696.9000, -65.058
1697.0000, -64.957
1697.1000, -64.023
1697.2000, -63.813
1697.3000, -70.199
1697.4000, -64.111
1697.5000, -80.922
1697.6000, -64.514
1697.7000, -65.523
1697.8000, -65.365
1697.9000, -61.240
1698.0000,-210.000
1698.1000, -66.117
1698.2000, -60.884
1698.3000, -72.201
1698.4000, -62.955
1698.5000, -69.720
1698.6000, -65.150
1698.7000, -62.269
1698.8000, -68.116
1698.9000, -65.188
1699.0000, -62.419
1699.1000, -70.372
1699.2000, -62.682
1699.3000, -70.469
1699.4000, -66.129
1699.5000, -68.958
1699.6000, -65.914
1699.7000, -62.111
1699.8000, -64.605
1699.9000, -63.615
1700.0000, -67.330
