70BCSV 	
// AQ6370B OPTICAL SPECTRUM ANALYZER //                 
25
"CTRWL",1300.000000
"SPAN", 800.000000
"START WL", 900.000000
"STOP WL",1700.000000
"WLFREQ", 0
"REFL",-17.2
"LSCL",10.0
"RESLN",0.500
"AVG",   1
"SMPLAUTO",      1
"SMPL",       8001
"SMPLINTVL",0.1000
"HIGH1"
"MEAS"
"LSUNT",0
"NMSKH","OFF"
"RESCOR",0
"RESPARM", 9740
"FREQPARM", 9740






"[TRACE DATA]"
 900.0000,-210.000
 900.1000,-210.000
 900.2000,-210.000
 900.3000, -84.668
 900.4000,-210.000
 900.5000, -84.912
 900.6000, -74.155
 900.7000, -77.340
 900.8000, -78.941
 900.9000,-210.000
 901.0000, -73.980
 901.1000, -74.137
 901.2000,-210.000
 901.3000, -77.560
 901.4000, -73.876
 901.5000, -94.324
 901.6000, -74.086
 901.7000, -81.370
 901.8000, -74.964
 901.9000, -77.986
 902.0000, -73.064
 902.1000, -76.996
 902.2000,-210.000
 902.3000,-210.000
 902.4000, -72.523
 902.5000, -76.324
 902.6000, -80.882
 902.7000, -77.688
 902.8000,-210.000
 902.9000, -83.627
 903.0000,-210.000
 903.1000, -76.135
 903.2000, -79.879
 903.3000, -75.138
 903.4000, -81.141
 903.5000, -79.470
 903.6000, -74.259
 903.7000, -78.756
 903.8000, -70.797
 903.9000,-210.000
 904.0000, -80.401
 904.1000, -81.456
 904.2000, -73.468
 904.3000, -75.174
 904.4000,-210.000
 904.5000,-210.000
 904.6000, -72.732
 904.7000,-210.000
 904.8000, -77.648
 904.9000, -76.842
 905.0000,-210.000
 905.1000, -73.939
 905.2000, -69.919
 905.3000,-210.000
 905.4000,-210.000
 905.5000, -76.299
 905.6000, -71.676
 905.7000, -77.027
 905.8000,-210.000
 905.9000, -75.178
 906.0000, -78.449
 906.1000, -78.978
 906.2000, -72.972
 906.3000, -77.383
 906.4000, -74.077
 906.5000, -91.199
 906.6000, -76.852
 906.7000,-210.000
 906.8000, -74.257
 906.9000, -72.446
 907.0000, -78.927
 907.1000, -77.440
 907.2000, -74.592
 907.3000, -81.408
 907.4000, -73.625
 907.5000, -83.843
 907.6000, -77.536
 907.7000, -79.568
 907.8000, -79.004
 907.9000,-210.000
 908.0000, -80.238
 908.1000, -76.664
 908.2000, -75.991
 908.3000, -89.733
 908.4000, -75.795
 908.5000, -86.281
 908.6000, -74.697
 908.7000, -78.063
 908.8000, -76.075
 908.9000, -76.083
 909.0000, -78.530
 909.1000,-210.000
 909.2000,-210.000
 909.3000, -74.471
 909.4000, -76.491
 909.5000, -77.603
 909.6000, -75.278
 909.7000, -77.894
 909.8000, -74.094
 909.9000,-210.000
 910.0000, -77.106
 910.1000,-210.000
 910.2000, -75.736
 910.3000, -75.657
 910.4000, -74.387
 910.5000, -76.207
 910.6000, -79.888
 910.7000,-210.000
 910.8000, -74.816
 910.9000, -78.172
 911.0000,-210.000
 911.1000,-210.000
 911.2000, -96.594
 911.3000, -75.861
 911.4000, -82.893
 911.5000, -82.374
 911.6000, -97.642
 911.7000, -78.863
 911.8000, -76.704
 911.9000, -76.645
 912.0000,-210.000
 912.1000, -73.815
 912.2000, -79.268
 912.3000,-100.286
 912.4000, -73.938
 912.5000,-210.000
 912.6000, -87.406
 912.7000, -79.964
 912.8000, -87.185
 912.9000, -74.377
 913.0000, -75.823
 913.1000,-210.000
 913.2000,-210.000
 913.3000, -75.093
 913.4000, -74.709
 913.5000, -77.106
 913.6000, -83.897
 913.7000, -75.191
 913.8000, -77.778
 913.9000,-210.000
 914.0000, -77.248
 914.1000, -76.670
 914.2000, -79.921
 914.3000, -81.136
 914.4000, -80.335
 914.5000,-210.000
 914.6000, -82.451
 914.7000,-210.000
 914.8000, -75.273
 914.9000, -78.539
 915.0000, -80.164
 915.1000, -82.795
 915.2000, -77.389
 915.3000, -80.956
 915.4000, -81.681
 915.5000, -75.726
 915.6000,-210.000
 915.7000, -88.676
 915.8000, -74.895
 915.9000, -82.046
 916.0000, -79.357
 916.1000, -78.677
 916.2000, -82.428
 916.3000, -78.503
 916.4000, -79.685
 916.5000, -76.914
 916.6000,-210.000
 916.7000, -78.491
 916.8000, -75.108
 916.9000,-101.793
 917.0000,-210.000
 917.1000, -74.300
 917.2000, -83.198
 917.3000, -78.515
 917.4000, -78.065
 917.5000,-210.000
 917.6000,-210.000
 917.7000, -78.002
 917.8000, -78.408
 917.9000,-210.000
 918.0000, -75.131
 918.1000, -75.236
 918.2000,-210.000
 918.3000, -80.320
 918.4000,-210.000
 918.5000, -73.731
 918.6000,-210.000
 918.7000, -77.152
 918.8000, -74.022
 918.9000, -71.327
 919.0000,-210.000
 919.1000,-210.000
 919.2000, -70.419
 919.3000, -79.274
 919.4000, -78.383
 919.5000,-210.000
 919.6000,-210.000
 919.7000, -83.324
 919.8000, -79.765
 919.9000, -76.985
 920.0000, -77.135
 920.1000, -72.197
 920.2000,-210.000
 920.3000,-210.000
 920.4000, -74.421
 920.5000, -77.351
 920.6000,-210.000
 920.7000, -74.765
 920.8000, -73.982
 920.9000, -76.757
 921.0000, -83.224
 921.1000,-210.000
 921.2000,-210.000
 921.3000, -71.325
 921.4000, -82.002
 921.5000, -71.974
 921.6000, -79.552
 921.7000,-210.000
 921.8000, -82.507
 921.9000, -78.742
 922.0000, -73.908
 922.1000,-210.000
 922.2000,-210.000
 922.3000, -76.499
 922.4000, -74.192
 922.5000, -84.311
 922.6000, -72.309
 922.7000,-210.000
 922.8000, -82.571
 922.9000,-210.000
 923.0000, -80.424
 923.1000,-210.000
 923.2000, -76.217
 923.3000, -78.578
 923.4000, -75.324
 923.5000, -83.031
 923.6000,-210.000
 923.7000,-210.000
 923.8000, -77.958
 923.9000, -79.658
 924.0000, -78.965
 924.1000, -80.785
 924.2000, -74.813
 924.3000,-210.000
 924.4000, -78.557
 924.5000, -77.612
 924.6000,-210.000
 924.7000, -78.427
 924.8000, -78.540
 924.9000, -79.292
 925.0000, -79.714
 925.1000, -82.118
 925.2000, -80.638
 925.3000, -79.841
 925.4000, -79.566
 925.5000, -75.024
 925.6000, -85.701
 925.7000,-210.000
 925.8000, -76.446
 925.9000, -83.690
 926.0000,-210.000
 926.1000, -77.648
 926.2000, -77.706
 926.3000, -80.139
 926.4000, -79.079
 926.5000, -80.748
 926.6000,-210.000
 926.7000, -80.744
 926.8000, -77.019
 926.9000, -79.891
 927.0000, -85.990
 927.1000, -77.575
 927.2000,-210.000
 927.3000, -76.392
 927.4000, -77.911
 927.5000, -77.966
 927.6000, -89.185
 927.7000, -89.174
 927.8000, -83.148
 927.9000, -80.381
 928.0000, -96.310
 928.1000,-210.000
 928.2000, -73.405
 928.3000, -76.302
 928.4000,-210.000
 928.5000,-210.000
 928.6000,-210.000
 928.7000, -74.499
 928.8000, -72.272
 928.9000, -79.403
 929.0000,-210.000
 929.1000, -72.713
 929.2000,-210.000
 929.3000, -76.339
 929.4000,-210.000
 929.5000, -80.072
 929.6000, -78.389
 929.7000,-210.000
 929.8000, -84.320
 929.9000,-210.000
 930.0000, -73.594
 930.1000, -76.976
 930.2000, -99.685
 930.3000,-210.000
 930.4000, -79.663
 930.5000, -72.379
 930.6000,-210.000
 930.7000, -88.651
 930.8000,-210.000
 930.9000,-210.000
 931.0000,-210.000
 931.1000, -74.510
 931.2000, -76.600
 931.3000,-210.000
 931.4000,-210.000
 931.5000, -82.221
 931.6000, -72.363
 931.7000, -84.826
 931.8000,-210.000
 931.9000, -77.334
 932.0000, -81.102
 932.1000,-210.000
 932.2000, -74.436
 932.3000,-210.000
 932.4000, -77.873
 932.5000,-210.000
 932.6000,-210.000
 932.7000, -76.861
 932.8000, -75.971
 932.9000,-210.000
 933.0000, -75.086
 933.1000, -79.582
 933.2000,-210.000
 933.3000, -75.106
 933.4000,-210.000
 933.5000, -79.337
 933.6000,-210.000
 933.7000, -81.370
 933.8000, -76.528
 933.9000,-210.000
 934.0000,-210.000
 934.1000, -76.281
 934.2000, -79.280
 934.3000,-210.000
 934.4000, -75.836
 934.5000,-210.000
 934.6000,-210.000
 934.7000, -92.530
 934.8000, -79.603
 934.9000, -76.663
 935.0000, -76.928
 935.1000,-210.000
 935.2000, -75.615
 935.3000, -83.435
 935.4000, -82.169
 935.5000, -83.269
 935.6000,-210.000
 935.7000, -76.417
 935.8000,-210.000
 935.9000, -81.431
 936.0000, -80.601
 936.1000, -81.694
 936.2000, -85.319
 936.3000, -79.955
 936.4000, -84.425
 936.5000, -85.108
 936.6000, -81.400
 936.7000, -77.084
 936.8000, -80.874
 936.9000, -78.046
 937.0000, -82.971
 937.1000, -76.441
 937.2000, -79.694
 937.3000, -80.173
 937.4000, -79.374
 937.5000, -80.096
 937.6000, -85.913
 937.7000, -79.640
 937.8000, -80.911
 937.9000, -89.185
 938.0000, -79.811
 938.1000, -77.704
 938.2000, -77.836
 938.3000, -77.172
 938.4000, -75.895
 938.5000, -77.927
 938.6000, -79.766
 938.7000, -76.387
 938.8000, -76.648
 938.9000, -77.323
 939.0000, -74.987
 939.1000, -76.121
 939.2000, -79.267
 939.3000, -81.490
 939.4000, -76.023
 939.5000, -76.544
 939.6000,-210.000
 939.7000, -77.830
 939.8000, -74.197
 939.9000, -92.888
 940.0000,-210.000
 940.1000,-210.000
 940.2000, -72.639
 940.3000, -76.228
 940.4000, -75.413
 940.5000, -78.714
 940.6000,-210.000
 940.7000, -78.556
 940.8000,-210.000
 940.9000, -87.466
 941.0000, -78.023
 941.1000, -88.096
 941.2000, -86.660
 941.3000, -77.995
 941.4000,-210.000
 941.5000,-210.000
 941.6000, -80.476
 941.7000, -81.807
 941.8000, -86.327
 941.9000, -82.053
 942.0000, -85.108
 942.1000, -82.906
 942.2000, -77.065
 942.3000, -86.117
 942.4000, -83.456
 942.5000, -78.731
 942.6000, -76.688
 942.7000, -79.043
 942.8000, -92.526
 942.9000, -80.224
 943.0000, -84.423
 943.1000, -79.418
 943.2000,-210.000
 943.3000, -77.472
 943.4000,-210.000
 943.5000, -80.073
 943.6000, -78.814
 943.7000, -80.236
 943.8000, -88.435
 943.9000, -91.033
 944.0000, -84.275
 944.1000, -82.809
 944.2000, -80.684
 944.3000, -82.173
 944.4000, -89.958
 944.5000, -81.617
 944.6000, -81.953
 944.7000, -83.703
 944.8000, -80.409
 944.9000, -77.001
 945.0000, -76.316
 945.1000, -85.521
 945.2000, -81.642
 945.3000, -80.730
 945.4000, -80.626
 945.5000, -77.240
 945.6000, -74.711
 945.7000, -76.528
 945.8000, -75.061
 945.9000, -74.236
 946.0000, -73.651
 946.1000, -75.722
 946.2000, -73.859
 946.3000, -76.035
 946.4000, -74.843
 946.5000, -74.176
 946.6000, -74.867
 946.7000, -75.296
 946.8000, -79.848
 946.9000, -75.607
 947.0000, -90.156
 947.1000, -76.448
 947.2000, -77.313
 947.3000, -80.122
 947.4000, -82.894
 947.5000, -80.114
 947.6000, -89.347
 947.7000, -79.345
 947.8000, -77.271
 947.9000, -83.489
 948.0000, -81.881
 948.1000, -78.317
 948.2000, -86.380
 948.3000,-210.000
 948.4000, -81.064
 948.5000,-210.000
 948.6000, -80.127
 948.7000, -83.292
 948.8000, -78.612
 948.9000,-210.000
 949.0000, -78.775
 949.1000, -79.793
 949.2000, -80.161
 949.3000, -86.065
 949.4000, -80.784
 949.5000, -81.155
 949.6000, -82.977
 949.7000, -85.164
 949.8000, -79.189
 949.9000, -88.569
 950.0000, -76.131
 950.1000,-210.000
 950.2000, -86.601
 950.3000, -80.242
 950.4000, -81.370
 950.5000, -78.471
 950.6000,-210.000
 950.7000, -88.468
 950.8000, -82.262
 950.9000, -79.650
 951.0000, -82.882
 951.1000,-210.000
 951.2000, -80.586
 951.3000, -78.224
 951.4000, -78.498
 951.5000,-210.000
 951.6000,-210.000
 951.7000, -83.824
 951.8000, -81.878
 951.9000, -88.455
 952.0000, -85.544
 952.1000,-210.000
 952.2000, -78.780
 952.3000,-210.000
 952.4000, -77.518
 952.5000, -79.896
 952.6000,-210.000
 952.7000, -83.584
 952.8000, -79.760
 952.9000, -95.228
 953.0000, -88.717
 953.1000, -81.307
 953.2000,-210.000
 953.3000, -80.458
 953.4000, -81.081
 953.5000, -81.148
 953.6000,-210.000
 953.7000, -79.026
 953.8000, -83.982
 953.9000, -81.842
 954.0000, -78.767
 954.1000, -78.425
 954.2000,-210.000
 954.3000, -81.981
 954.4000, -82.611
 954.5000, -79.800
 954.6000, -80.104
 954.7000, -80.968
 954.8000, -87.703
 954.9000, -79.758
 955.0000, -83.707
 955.1000, -82.025
 955.2000, -81.943
 955.3000, -81.922
 955.4000, -82.787
 955.5000, -81.568
 955.6000,-210.000
 955.7000, -86.695
 955.8000, -80.879
 955.9000, -78.609
 956.0000,-210.000
 956.1000, -83.639
 956.2000, -76.164
 956.3000, -93.885
 956.4000,-210.000
 956.5000, -81.905
 956.6000, -79.681
 956.7000, -80.553
 956.8000, -86.895
 956.9000, -83.985
 957.0000, -79.512
 957.1000,-210.000
 957.2000, -80.540
 957.3000, -81.505
 957.4000, -77.687
 957.5000, -82.911
 957.6000,-210.000
 957.7000, -84.525
 957.8000, -79.157
 957.9000, -81.482
 958.0000, -82.536
 958.1000, -78.175
 958.2000,-210.000
 958.3000,-210.000
 958.4000, -78.355
 958.5000, -74.114
 958.6000,-210.000
 958.7000, -90.121
 958.8000, -79.681
 958.9000, -80.944
 959.0000, -82.442
 959.1000, -80.817
 959.2000, -86.673
 959.3000, -83.245
 959.4000, -81.776
 959.5000,-100.567
 959.6000, -81.104
 959.7000, -86.222
 959.8000, -84.383
 959.9000, -85.967
 960.0000, -85.909
 960.1000, -82.838
 960.2000, -83.557
 960.3000, -83.022
 960.4000, -82.289
 960.5000, -77.695
 960.6000,-210.000
 960.7000, -80.769
 960.8000, -81.097
 960.9000, -85.910
 961.0000, -84.929
 961.1000, -83.572
 961.2000, -97.328
 961.3000, -81.726
 961.4000, -80.299
 961.5000,-210.000
 961.6000, -84.709
 961.7000, -86.798
 961.8000, -83.171
 961.9000, -79.398
 962.0000, -85.378
 962.1000,-210.000
 962.2000, -82.676
 962.3000, -79.485
 962.4000, -77.579
 962.5000, -78.759
 962.6000, -82.895
 962.7000,-210.000
 962.8000,-210.000
 962.9000, -84.717
 963.0000, -80.025
 963.1000, -80.368
 963.2000, -80.710
 963.3000, -86.310
 963.4000,-210.000
 963.5000, -81.353
 963.6000, -81.230
 963.7000, -83.377
 963.8000, -82.716
 963.9000, -80.918
 964.0000,-210.000
 964.1000, -81.839
 964.2000, -89.806
 964.3000, -80.740
 964.4000,-210.000
 964.5000, -81.735
 964.6000, -83.834
 964.7000, -80.600
 964.8000, -79.148
 964.9000,-210.000
 965.0000, -82.663
 965.1000, -90.933
 965.2000, -82.872
 965.3000, -82.171
 965.4000, -84.795
 965.5000, -84.354
 965.6000, -84.371
 965.7000, -79.883
 965.8000,-210.000
 965.9000, -86.477
 966.0000,-210.000
 966.1000, -84.196
 966.2000, -79.645
 966.3000, -84.056
 966.4000, -80.487
 966.5000, -91.536
 966.6000, -84.230
 966.7000, -83.268
 966.8000, -79.535
 966.9000, -84.553
 967.0000,-210.000
 967.1000, -82.843
 967.2000, -83.949
 967.3000, -83.821
 967.4000, -84.513
 967.5000, -80.373
 967.6000, -79.208
 967.7000, -83.754
 967.8000, -85.167
 967.9000, -86.393
 968.0000, -79.831
 968.1000,-210.000
 968.2000, -86.153
 968.3000, -87.208
 968.4000,-210.000
 968.5000, -79.904
 968.6000, -82.788
 968.7000, -85.400
 968.8000, -82.640
 968.9000, -82.691
 969.0000, -84.372
 969.1000, -84.183
 969.2000, -85.946
 969.3000, -79.994
 969.4000, -84.803
 969.5000, -82.250
 969.6000, -79.418
 969.7000, -87.793
 969.8000, -82.794
 969.9000, -89.534
 970.0000, -84.085
 970.1000, -83.965
 970.2000, -81.843
 970.3000, -77.509
 970.4000,-210.000
 970.5000, -82.274
 970.6000, -89.998
 970.7000, -88.552
 970.8000, -80.211
 970.9000,-210.000
 971.0000, -80.036
 971.1000, -80.744
 971.2000, -82.884
 971.3000, -81.252
 971.4000, -82.978
 971.5000, -92.375
 971.6000, -86.183
 971.7000, -82.670
 971.8000, -85.463
 971.9000, -82.932
 972.0000, -82.101
 972.1000, -83.320
 972.2000,-210.000
 972.3000, -79.903
 972.4000, -80.510
 972.5000, -81.296
 972.6000, -81.083
 972.7000, -83.519
 972.8000, -81.096
 972.9000, -83.465
 973.0000, -80.805
 973.1000, -89.164
 973.2000, -84.074
 973.3000, -89.048
 973.4000, -88.111
 973.5000, -82.009
 973.6000, -82.226
 973.7000, -99.435
 973.8000, -81.919
 973.9000,-210.000
 974.0000, -82.654
 974.1000, -80.852
 974.2000, -85.181
 974.3000, -81.034
 974.4000, -84.782
 974.5000, -85.157
 974.6000, -85.613
 974.7000, -79.174
 974.8000, -84.284
 974.9000, -80.656
 975.0000, -82.058
 975.1000, -83.575
 975.2000, -79.025
 975.3000,-210.000
 975.4000,-210.000
 975.5000, -76.915
 975.6000, -80.757
 975.7000,-210.000
 975.8000, -81.324
 975.9000, -79.972
 976.0000,-210.000
 976.1000,-210.000
 976.2000, -82.652
 976.3000, -80.528
 976.4000, -78.667
 976.5000,-210.000
 976.6000, -78.566
 976.7000,-210.000
 976.8000, -81.399
 976.9000, -89.273
 977.0000, -81.945
 977.1000, -82.931
 977.2000, -83.699
 977.3000, -82.952
 977.4000, -81.143
 977.5000,-210.000
 977.6000,-210.000
 977.7000, -80.974
 977.8000,-210.000
 977.9000, -80.012
 978.0000,-210.000
 978.1000,-210.000
 978.2000, -81.422
 978.3000, -79.622
 978.4000, -81.548
 978.5000,-210.000
 978.6000, -83.192
 978.7000, -79.911
 978.8000, -76.526
 978.9000,-210.000
 979.0000,-210.000
 979.1000, -81.738
 979.2000, -79.372
 979.3000, -84.419
 979.4000, -81.651
 979.5000, -81.027
 979.6000, -89.248
 979.7000, -93.971
 979.8000, -81.301
 979.9000, -84.123
 980.0000, -81.516
 980.1000,-210.000
 980.2000, -84.705
 980.3000, -81.404
 980.4000, -80.782
 980.5000, -80.881
 980.6000, -86.131
 980.7000, -81.538
 980.8000, -80.982
 980.9000, -79.673
 981.0000, -79.573
 981.1000, -82.343
 981.2000, -88.597
 981.3000, -85.884
 981.4000, -86.938
 981.5000,-210.000
 981.6000, -80.384
 981.7000,-210.000
 981.8000, -79.513
 981.9000,-210.000
 982.0000, -95.317
 982.1000, -83.507
 982.2000,-210.000
 982.3000, -80.107
 982.4000, -83.834
 982.5000, -77.332
 982.6000,-210.000
 982.7000, -95.632
 982.8000, -77.492
 982.9000, -80.167
 983.0000,-210.000
 983.1000,-210.000
 983.2000, -79.576
 983.3000,-210.000
 983.4000, -79.407
 983.5000, -83.793
 983.6000, -79.748
 983.7000, -83.616
 983.8000, -86.035
 983.9000, -88.469
 984.0000,-210.000
 984.1000, -77.956
 984.2000, -79.877
 984.3000,-210.000
 984.4000, -81.655
 984.5000, -84.534
 984.6000, -79.706
 984.7000, -82.907
 984.8000, -88.924
 984.9000,-210.000
 985.0000, -79.408
 985.1000, -80.132
 985.2000, -79.438
 985.3000, -79.837
 985.4000,-210.000
 985.5000, -86.487
 985.6000,-210.000
 985.7000, -89.017
 985.8000, -79.932
 985.9000, -84.972
 986.0000,-210.000
 986.1000, -79.297
 986.2000, -87.339
 986.3000,-210.000
 986.4000, -82.469
 986.5000,-210.000
 986.6000, -81.336
 986.7000, -84.968
 986.8000, -83.773
 986.9000, -94.972
 987.0000, -83.216
 987.1000, -83.927
 987.2000, -85.648
 987.3000, -83.595
 987.4000, -81.169
 987.5000, -82.261
 987.6000, -79.776
 987.7000,-210.000
 987.8000, -81.706
 987.9000, -87.638
 988.0000, -81.869
 988.1000, -82.110
 988.2000, -85.216
 988.3000, -83.351
 988.4000, -82.971
 988.5000, -88.620
 988.6000, -86.344
 988.7000,-210.000
 988.8000, -81.775
 988.9000, -90.183
 989.0000, -83.754
 989.1000, -81.862
 989.2000, -79.304
 989.3000, -95.480
 989.4000,-210.000
 989.5000, -78.385
 989.6000, -78.684
 989.7000, -83.040
 989.8000, -93.287
 989.9000,-210.000
 990.0000,-210.000
 990.1000, -84.326
 990.2000, -82.025
 990.3000, -82.494
 990.4000, -82.426
 990.5000, -82.040
 990.6000, -79.652
 990.7000, -81.888
 990.8000,-210.000
 990.9000,-210.000
 991.0000, -82.429
 991.1000, -77.681
 991.2000, -80.225
 991.3000,-210.000
 991.4000, -90.118
 991.5000, -91.838
 991.6000, -84.586
 991.7000, -84.227
 991.8000, -87.327
 991.9000, -82.357
 992.0000, -83.581
 992.1000, -82.887
 992.2000, -79.294
 992.3000, -79.812
 992.4000, -81.666
 992.5000,-210.000
 992.6000,-210.000
 992.7000, -80.448
 992.8000,-210.000
 992.9000, -79.235
 993.0000, -88.145
 993.1000, -82.178
 993.2000, -83.433
 993.3000, -79.519
 993.4000, -83.323
 993.5000, -81.021
 993.6000, -81.737
 993.7000,-210.000
 993.8000, -91.946
 993.9000, -80.702
 994.0000, -80.629
 994.1000, -91.058
 994.2000, -79.397
 994.3000,-210.000
 994.4000, -87.379
 994.5000, -82.419
 994.6000, -80.788
 994.7000, -85.145
 994.8000,-210.000
 994.9000, -78.598
 995.0000, -79.836
 995.1000,-210.000
 995.2000, -77.622
 995.3000,-210.000
 995.4000, -75.841
 995.5000,-210.000
 995.6000,-210.000
 995.7000, -83.006
 995.8000, -77.411
 995.9000,-210.000
 996.0000,-210.000
 996.1000, -79.975
 996.2000, -78.683
 996.3000, -86.270
 996.4000,-210.000
 996.5000, -85.909
 996.6000, -85.153
 996.7000, -81.080
 996.8000, -83.237
 996.9000, -81.244
 997.0000, -80.133
 997.1000, -91.563
 997.2000, -83.122
 997.3000, -89.901
 997.4000, -81.533
 997.5000, -80.785
 997.6000, -84.278
 997.7000, -83.344
 997.8000, -85.366
 997.9000, -83.962
 998.0000, -77.011
 998.1000,-210.000
 998.2000, -84.375
 998.3000,-210.000
 998.4000, -81.318
 998.5000, -84.180
 998.6000, -85.910
 998.7000, -79.657
 998.8000,-210.000
 998.9000, -83.933
 999.0000, -83.290
 999.1000, -86.205
 999.2000, -81.614
 999.3000, -77.035
 999.4000,-210.000
 999.5000,-210.000
 999.6000,-210.000
 999.7000, -82.430
 999.8000, -83.325
 999.9000, -83.608
1000.0000, -88.125
1000.1000, -87.554
1000.2000, -80.799
1000.3000, -83.947
1000.4000, -81.559
1000.5000, -94.441
1000.6000, -83.391
1000.7000, -86.153
1000.8000, -80.055
1000.9000, -82.964
1001.0000, -85.692
1001.1000, -80.846
1001.2000, -88.669
1001.3000, -82.622
1001.4000,-210.000
1001.5000,-210.000
1001.6000, -80.713
1001.7000, -81.774
1001.8000, -87.292
1001.9000,-210.000
1002.0000, -82.973
1002.1000, -82.570
1002.2000, -78.754
1002.3000,-210.000
1002.4000, -81.733
1002.5000, -83.977
1002.6000, -82.648
1002.7000, -83.464
1002.8000, -83.222
1002.9000, -82.324
1003.0000,-210.000
1003.1000, -82.427
1003.2000, -81.531
1003.3000, -84.455
1003.4000, -81.459
1003.5000, -82.465
1003.6000,-210.000
1003.7000,-210.000
1003.8000, -86.880
1003.9000, -86.115
1004.0000, -82.736
1004.1000, -83.043
1004.2000, -82.007
1004.3000, -81.973
1004.4000, -91.955
1004.5000, -82.117
1004.6000, -80.692
1004.7000,-210.000
1004.8000, -84.625
1004.9000, -80.138
1005.0000, -87.619
1005.1000,-210.000
1005.2000, -82.337
1005.3000,-210.000
1005.4000, -81.997
1005.5000,-210.000
1005.6000, -78.856
1005.7000, -83.395
1005.8000, -84.395
1005.9000, -81.469
1006.0000, -84.807
1006.1000,-210.000
1006.2000, -82.182
1006.3000, -80.937
1006.4000,-210.000
1006.5000, -78.988
1006.6000, -94.655
1006.7000, -82.783
1006.8000, -86.479
1006.9000, -86.076
1007.0000, -81.540
1007.1000, -81.362
1007.2000, -86.872
1007.3000, -90.877
1007.4000, -81.575
1007.5000,-210.000
1007.6000, -79.080
1007.7000, -81.696
1007.8000, -81.140
1007.9000,-210.000
1008.0000, -83.395
1008.1000, -80.400
1008.2000, -86.009
1008.3000, -81.411
1008.4000, -80.874
1008.5000, -87.569
1008.6000, -85.201
1008.7000, -86.013
1008.8000, -84.887
1008.9000, -80.086
1009.0000, -81.793
1009.1000, -84.062
1009.2000, -86.173
1009.3000, -81.854
1009.4000,-210.000
1009.5000, -81.811
1009.6000, -80.896
1009.7000, -81.919
1009.8000, -96.916
1009.9000, -85.284
1010.0000,-210.000
1010.1000, -81.163
1010.2000, -80.630
1010.3000, -83.800
1010.4000, -82.588
1010.5000, -82.115
1010.6000,-210.000
1010.7000, -80.663
1010.8000, -84.053
1010.9000, -86.805
1011.0000, -82.344
1011.1000, -89.900
1011.2000, -85.339
1011.3000, -83.306
1011.4000, -82.843
1011.5000, -86.244
1011.6000, -80.067
1011.7000, -97.868
1011.8000, -80.814
1011.9000, -89.771
1012.0000, -86.228
1012.1000, -79.726
1012.2000,-210.000
1012.3000, -80.751
1012.4000, -86.603
1012.5000, -88.414
1012.6000, -89.658
1012.7000, -81.267
1012.8000,-210.000
1012.9000, -84.267
1013.0000, -80.039
1013.1000, -82.077
1013.2000, -84.056
1013.3000, -87.309
1013.4000, -80.976
1013.5000,-210.000
1013.6000, -85.025
1013.7000, -80.435
1013.8000, -83.771
1013.9000,-210.000
1014.0000, -79.549
1014.1000,-210.000
1014.2000, -83.677
1014.3000, -83.400
1014.4000, -85.739
1014.5000, -82.877
1014.6000, -85.539
1014.7000, -79.008
1014.8000, -77.054
1014.9000,-210.000
1015.0000,-210.000
1015.1000, -87.920
1015.2000, -78.956
1015.3000,-210.000
1015.4000, -80.213
1015.5000, -81.243
1015.6000, -87.116
1015.7000, -87.870
1015.8000, -81.636
1015.9000, -81.040
1016.0000,-210.000
1016.1000, -81.764
1016.2000, -84.511
1016.3000, -85.841
1016.4000, -81.856
1016.5000, -80.456
1016.6000, -88.109
1016.7000, -83.907
1016.8000,-210.000
1016.9000, -79.047
1017.0000, -87.355
1017.1000, -84.394
1017.2000, -82.547
1017.3000, -89.337
1017.4000, -85.420
1017.5000, -83.035
1017.6000, -80.448
1017.7000, -82.456
1017.8000, -80.568
1017.9000, -84.449
1018.0000,-210.000
1018.1000, -84.490
1018.2000, -80.249
1018.3000, -82.657
1018.4000, -85.882
1018.5000, -85.963
1018.6000, -81.951
1018.7000, -83.874
1018.8000, -79.621
1018.9000, -98.577
1019.0000, -83.403
1019.1000, -90.591
1019.2000, -87.320
1019.3000, -81.057
1019.4000, -81.986
1019.5000, -82.816
1019.6000, -98.139
1019.7000, -85.550
1019.8000, -83.439
1019.9000, -81.711
1020.0000, -87.721
1020.1000,-210.000
1020.2000,-210.000
1020.3000, -81.168
1020.4000, -87.926
1020.5000, -79.719
1020.6000,-210.000
1020.7000, -80.613
1020.8000, -82.268
1020.9000, -84.527
1021.0000, -84.058
1021.1000, -81.718
1021.2000,-210.000
1021.3000, -82.565
1021.4000, -81.228
1021.5000, -85.172
1021.6000, -83.202
1021.7000, -82.442
1021.8000, -82.315
1021.9000, -83.788
1022.0000, -83.586
1022.1000, -78.648
1022.2000, -82.510
1022.3000, -79.074
1022.4000,-210.000
1022.5000,-210.000
1022.6000, -81.648
1022.7000, -77.350
1022.8000,-210.000
1022.9000,-210.000
1023.0000, -80.432
1023.1000,-210.000
1023.2000, -80.393
1023.3000, -80.709
1023.4000,-210.000
1023.5000,-210.000
1023.6000,-210.000
1023.7000, -79.400
1023.8000, -78.199
1023.9000, -90.287
1024.0000, -96.998
1024.1000, -80.707
1024.2000,-210.000
1024.3000, -77.752
1024.4000, -80.329
1024.5000, -84.417
1024.6000,-210.000
1024.7000, -81.089
1024.8000,-210.000
1024.9000, -92.779
1025.0000, -90.185
1025.1000, -83.886
1025.2000, -92.700
1025.3000, -82.451
1025.4000, -80.890
1025.5000, -90.736
1025.6000, -85.300
1025.7000, -84.741
1025.8000, -85.372
1025.9000, -82.703
1026.0000, -93.187
1026.1000, -81.035
1026.2000, -80.381
1026.3000, -83.978
1026.4000, -84.651
1026.5000, -84.425
1026.6000, -79.438
1026.7000,-210.000
1026.8000, -90.915
1026.9000, -80.785
1027.0000, -81.653
1027.1000, -87.122
1027.2000, -79.808
1027.3000, -81.950
1027.4000, -81.033
1027.5000, -90.832
1027.6000, -84.953
1027.7000, -84.556
1027.8000, -85.616
1027.9000, -86.428
1028.0000, -80.166
1028.1000,-103.753
1028.2000, -81.429
1028.3000, -85.120
1028.4000, -83.273
1028.5000, -81.291
1028.6000, -84.012
1028.7000, -80.777
1028.8000, -81.069
1028.9000,-210.000
1029.0000, -84.252
1029.1000, -79.739
1029.2000, -85.547
1029.3000, -84.462
1029.4000, -85.795
1029.5000, -86.021
1029.6000, -86.222
1029.7000, -79.841
1029.8000, -81.684
1029.9000,-210.000
1030.0000, -81.169
1030.1000, -86.824
1030.2000, -83.074
1030.3000, -86.382
1030.4000, -82.931
1030.5000, -94.335
1030.6000, -79.944
1030.7000, -82.089
1030.8000, -82.242
1030.9000, -80.994
1031.0000, -82.211
1031.1000, -82.924
1031.2000, -84.747
1031.3000, -83.137
1031.4000, -80.130
1031.5000, -86.703
1031.6000, -83.144
1031.7000,-100.686
1031.8000, -81.440
1031.9000, -81.875
1032.0000, -80.425
1032.1000, -85.853
1032.2000, -82.953
1032.3000, -79.298
1032.4000, -81.340
1032.5000, -81.529
1032.6000,-210.000
1032.7000, -80.947
1032.8000, -85.050
1032.9000, -81.117
1033.0000, -86.689
1033.1000, -80.613
1033.2000, -83.468
1033.3000, -80.087
1033.4000, -82.455
1033.5000, -85.044
1033.6000, -80.901
1033.7000, -82.672
1033.8000, -84.596
1033.9000,-210.000
1034.0000, -83.381
1034.1000, -82.539
1034.2000, -80.703
1034.3000, -85.504
1034.4000, -80.883
1034.5000, -84.354
1034.6000, -81.483
1034.7000, -89.681
1034.8000, -83.289
1034.9000, -81.191
1035.0000, -84.073
1035.1000,-210.000
1035.2000, -81.548
1035.3000, -85.968
1035.4000, -81.461
1035.5000, -83.813
1035.6000, -84.286
1035.7000, -80.661
1035.8000, -83.834
1035.9000, -81.846
1036.0000, -81.828
1036.1000, -81.702
1036.2000, -87.894
1036.3000, -81.200
1036.4000, -86.196
1036.5000, -80.417
1036.6000, -81.091
1036.7000,-210.000
1036.8000, -80.188
1036.9000, -84.249
1037.0000, -78.513
1037.1000, -84.265
1037.2000, -90.276
1037.3000, -80.052
1037.4000,-210.000
1037.5000, -77.947
1037.6000,-210.000
1037.7000, -80.330
1037.8000, -82.083
1037.9000, -86.112
1038.0000, -83.947
1038.1000, -80.663
1038.2000,-210.000
1038.3000, -98.016
1038.4000, -81.224
1038.5000, -81.252
1038.6000, -85.091
1038.7000, -83.397
1038.8000, -81.861
1038.9000, -81.968
1039.0000, -80.655
1039.1000, -80.533
1039.2000, -81.482
1039.3000, -90.015
1039.4000, -88.796
1039.5000,-210.000
1039.6000, -77.341
1039.7000, -86.389
1039.8000, -80.562
1039.9000,-210.000
1040.0000, -85.742
1040.1000, -83.573
1040.2000, -79.046
1040.3000, -82.598
1040.4000,-210.000
1040.5000,-210.000
1040.6000, -86.825
1040.7000, -80.507
1040.8000, -84.261
1040.9000, -78.328
1041.0000,-210.000
1041.1000,-210.000
1041.2000, -77.263
1041.3000, -85.453
1041.4000, -81.915
1041.5000, -82.168
1041.6000, -82.616
1041.7000, -81.658
1041.8000, -86.384
1041.9000, -78.094
1042.0000,-210.000
1042.1000, -79.717
1042.2000, -87.595
1042.3000, -80.695
1042.4000, -79.133
1042.5000,-210.000
1042.6000, -86.227
1042.7000, -84.678
1042.8000, -79.195
1042.9000, -79.285
1043.0000, -83.249
1043.1000,-210.000
1043.2000, -80.350
1043.3000,-210.000
1043.4000, -81.506
1043.5000, -79.147
1043.6000, -85.128
1043.7000, -82.698
1043.8000, -87.346
1043.9000, -79.471
1044.0000, -81.876
1044.1000, -90.038
1044.2000, -81.496
1044.3000, -86.510
1044.4000, -81.688
1044.5000, -81.300
1044.6000, -86.050
1044.7000, -87.387
1044.8000, -86.332
1044.9000, -81.718
1045.0000, -79.110
1045.1000, -87.739
1045.2000, -83.993
1045.3000, -78.982
1045.4000, -81.611
1045.5000, -83.554
1045.6000,-210.000
1045.7000, -83.087
1045.8000, -80.025
1045.9000,-210.000
1046.0000, -83.198
1046.1000, -85.058
1046.2000, -81.728
1046.3000, -82.961
1046.4000, -84.704
1046.5000, -79.575
1046.6000, -83.835
1046.7000, -80.848
1046.8000, -96.536
1046.9000, -87.550
1047.0000, -78.989
1047.1000, -82.931
1047.2000, -83.289
1047.3000, -83.034
1047.4000, -83.471
1047.5000,-210.000
1047.6000, -79.606
1047.7000, -83.846
1047.8000, -80.923
1047.9000, -82.846
1048.0000, -82.086
1048.1000, -80.576
1048.2000, -88.498
1048.3000, -80.007
1048.4000, -78.407
1048.5000, -81.467
1048.6000,-210.000
1048.7000, -81.250
1048.8000, -80.485
1048.9000, -82.021
1049.0000, -79.983
1049.1000, -79.220
1049.2000, -81.383
1049.3000, -79.901
1049.4000, -80.124
1049.5000, -83.444
1049.6000, -79.198
1049.7000, -80.166
1049.8000, -82.760
1049.9000, -88.267
1050.0000, -80.063
1050.1000, -81.207
1050.2000, -82.806
1050.3000, -83.318
1050.4000, -80.200
1050.5000, -90.435
1050.6000, -81.346
1050.7000, -79.194
1050.8000, -86.355
1050.9000, -83.488
1051.0000, -79.700
1051.1000, -79.123
1051.2000, -80.288
1051.3000, -80.276
1051.4000, -81.960
1051.5000, -78.788
1051.6000, -81.617
1051.7000, -79.803
1051.8000, -77.464
1051.9000, -78.727
1052.0000, -78.449
1052.1000, -77.233
1052.2000, -75.687
1052.3000, -75.737
1052.4000, -74.670
1052.5000, -74.615
1052.6000, -75.316
1052.7000, -74.857
1052.8000, -75.388
1052.9000, -76.100
1053.0000, -77.793
1053.1000, -77.242
1053.2000, -78.327
1053.3000, -78.603
1053.4000, -79.348
1053.5000, -78.771
1053.6000, -79.598
1053.7000, -83.429
1053.8000, -79.166
1053.9000, -83.239
1054.0000, -82.550
1054.1000, -79.987
1054.2000, -79.461
1054.3000, -79.468
1054.4000, -79.081
1054.5000, -81.618
1054.6000, -81.608
1054.7000, -80.083
1054.8000, -79.958
1054.9000, -78.821
1055.0000, -79.850
1055.1000, -80.811
1055.2000, -78.510
1055.3000, -81.550
1055.4000, -78.949
1055.5000, -78.680
1055.6000, -80.380
1055.7000, -80.092
1055.8000, -78.554
1055.9000, -78.732
1056.0000, -77.480
1056.1000, -81.061
1056.2000, -81.047
1056.3000, -85.136
1056.4000, -79.664
1056.5000, -78.433
1056.6000, -82.721
1056.7000, -78.985
1056.8000, -80.911
1056.9000, -79.776
1057.0000, -80.060
1057.1000, -79.812
1057.2000, -79.810
1057.3000, -79.244
1057.4000, -79.647
1057.5000, -80.655
1057.6000, -78.766
1057.7000, -78.620
1057.8000, -80.767
1057.9000, -77.291
1058.0000, -78.398
1058.1000, -79.133
1058.2000, -79.684
1058.3000, -78.456
1058.4000, -78.738
1058.5000, -79.583
1058.6000, -77.425
1058.7000, -77.118
1058.8000, -77.325
1058.9000, -78.213
1059.0000, -85.267
1059.1000, -76.500
1059.2000, -79.206
1059.3000, -78.577
1059.4000, -79.033
1059.5000, -77.526
1059.6000, -77.345
1059.7000, -79.449
1059.8000, -77.248
1059.9000, -77.405
1060.0000, -76.717
1060.1000, -76.862
1060.2000, -76.594
1060.3000, -76.707
1060.4000, -76.555
1060.5000, -76.194
1060.6000, -76.569
1060.7000, -75.826
1060.8000, -75.574
1060.9000, -74.690
1061.0000, -74.684
1061.1000, -75.024
1061.2000, -74.396
1061.3000, -73.245
1061.4000, -73.950
1061.5000, -73.575
1061.6000, -71.285
1061.7000, -70.504
1061.8000, -70.167
1061.9000, -70.334
1062.0000, -70.066
1062.1000, -69.500
1062.2000, -69.613
1062.3000, -70.000
1062.4000, -71.066
1062.5000, -70.086
1062.6000, -70.409
1062.7000, -70.000
1062.8000, -69.748
1062.9000, -69.215
1063.0000, -69.111
1063.1000, -68.583
1063.2000, -67.994
1063.3000, -67.402
1063.4000, -66.649
1063.5000, -65.822
1063.6000, -64.859
1063.7000, -64.058
1063.8000, -63.017
1063.9000, -61.907
1064.0000, -60.448
1064.1000, -58.395
1064.2000, -50.398
1064.3000, -27.246
1064.4000, -14.876
1064.5000, -12.196
1064.6000, -12.126
1064.7000, -12.152
1064.8000, -12.137
1064.9000, -12.121
1065.0000, -12.199
1065.1000, -14.323
1065.2000, -24.857
1065.3000, -43.145
1065.4000, -56.995
1065.5000, -59.541
1065.6000, -61.365
1065.7000, -62.794
1065.8000, -63.700
1065.9000, -64.558
1066.0000, -65.440
1066.1000, -66.422
1066.2000, -67.091
1066.3000, -67.641
1066.4000, -68.302
1066.5000, -68.711
1066.6000, -69.406
1066.7000, -69.714
1066.8000, -70.112
1066.9000, -71.153
1067.0000, -71.291
1067.1000, -71.821
1067.2000, -72.808
1067.3000, -72.681
1067.4000, -73.018
1067.5000, -72.633
1067.6000, -72.912
1067.7000, -73.209
1067.8000, -73.580
1067.9000, -73.761
1068.0000, -73.945
1068.1000, -73.657
1068.2000, -73.688
1068.3000, -73.991
1068.4000, -73.540
1068.5000, -73.630
1068.6000, -74.041
1068.7000, -74.264
1068.8000, -73.611
1068.9000, -73.778
1069.0000, -74.165
1069.1000, -75.530
1069.2000, -74.998
1069.3000, -75.019
1069.4000, -74.571
1069.5000, -75.771
1069.6000, -74.972
1069.7000, -75.360
1069.8000, -76.419
1069.9000, -75.582
1070.0000, -75.826
1070.1000, -76.324
1070.2000, -76.361
1070.3000, -76.910
1070.4000, -76.060
1070.5000, -75.868
1070.6000, -75.538
1070.7000, -77.841
1070.8000, -76.493
1070.9000, -75.717
1071.0000, -76.936
1071.1000, -76.863
1071.2000, -76.210
1071.3000, -77.077
1071.4000, -75.985
1071.5000, -76.710
1071.6000, -76.742
1071.7000, -77.078
1071.8000, -76.992
1071.9000, -77.361
1072.0000, -75.931
1072.1000, -76.608
1072.2000, -77.394
1072.3000, -90.638
1072.4000, -75.901
1072.5000, -74.405
1072.6000, -77.148
1072.7000, -78.620
1072.8000, -76.425
1072.9000, -76.589
1073.0000, -77.248
1073.1000, -77.242
1073.2000, -75.995
1073.3000, -76.898
1073.4000, -76.111
1073.5000, -76.035
1073.6000, -74.848
1073.7000, -75.543
1073.8000, -75.208
1073.9000, -75.119
1074.0000, -72.977
1074.1000, -72.072
1074.2000, -71.600
1074.3000, -71.920
1074.4000, -70.920
1074.5000, -71.244
1074.6000, -70.182
1074.7000, -71.003
1074.8000, -71.576
1074.9000, -71.646
1075.0000, -71.252
1075.1000, -73.195
1075.2000, -73.576
1075.3000, -74.392
1075.4000, -73.668
1075.5000, -75.827
1075.6000, -78.024
1075.7000, -75.407
1075.8000, -74.819
1075.9000, -78.487
1076.0000, -75.994
1076.1000, -75.882
1076.2000, -77.048
1076.3000, -77.861
1076.4000, -77.339
1076.5000, -76.968
1076.6000, -76.497
1076.7000, -76.659
1076.8000, -76.391
1076.9000, -76.902
1077.0000, -77.503
1077.1000, -76.889
1077.2000, -76.388
1077.3000, -76.460
1077.4000, -76.750
1077.5000, -75.802
1077.6000, -76.945
1077.7000, -75.604
1077.8000, -76.304
1077.9000, -76.158
1078.0000, -75.454
1078.1000, -74.513
1078.2000, -75.245
1078.3000, -74.963
1078.4000, -75.510
1078.5000, -75.184
1078.6000, -75.165
1078.7000, -75.390
1078.8000, -75.270
1078.9000, -75.821
1079.0000, -75.136
1079.1000, -76.024
1079.2000, -76.347
1079.3000, -76.169
1079.4000, -76.919
1079.5000, -76.515
1079.6000, -77.356
1079.7000, -76.043
1079.8000, -76.507
1079.9000, -76.695
1080.0000, -77.828
1080.1000, -77.459
1080.2000, -76.709
1080.3000, -77.236
1080.4000, -77.368
1080.5000, -77.955
1080.6000, -76.352
1080.7000, -77.074
1080.8000, -77.835
1080.9000, -77.028
1081.0000, -77.126
1081.1000, -77.852
1081.2000, -76.937
1081.3000, -78.089
1081.4000, -76.402
1081.5000, -78.295
1081.6000, -77.870
1081.7000, -77.255
1081.8000, -78.161
1081.9000, -77.750
1082.0000, -77.851
1082.1000, -77.827
1082.2000, -78.181
1082.3000, -77.399
1082.4000, -78.114
1082.5000, -77.197
1082.6000, -78.257
1082.7000, -77.799
1082.8000, -77.269
1082.9000, -77.604
1083.0000, -77.504
1083.1000, -77.898
1083.2000, -77.741
1083.3000, -78.047
1083.4000, -77.424
1083.5000, -78.194
1083.6000, -77.446
1083.7000, -77.721
1083.8000, -77.626
1083.9000, -78.753
1084.0000, -77.200
1084.1000, -76.660
1084.2000, -78.616
1084.3000, -77.162
1084.4000, -77.499
1084.5000, -77.267
1084.6000, -77.826
1084.7000, -78.438
1084.8000, -77.274
1084.9000, -77.472
1085.0000, -76.274
1085.1000, -76.961
1085.2000, -77.694
1085.3000, -78.695
1085.4000, -77.517
1085.5000, -77.310
1085.6000, -77.029
1085.7000, -78.148
1085.8000, -77.758
1085.9000, -78.285
1086.0000, -76.637
1086.1000, -77.451
1086.2000, -77.765
1086.3000, -77.010
1086.4000, -77.147
1086.5000, -77.250
1086.6000, -78.042
1086.7000, -76.841
1086.8000, -77.123
1086.9000, -77.284
1087.0000, -77.993
1087.1000, -77.443
1087.2000, -77.308
1087.3000, -77.780
1087.4000, -77.237
1087.5000, -77.246
1087.6000, -76.452
1087.7000, -78.149
1087.8000, -77.210
1087.9000, -76.809
1088.0000, -77.244
1088.1000, -77.371
1088.2000, -76.207
1088.3000, -77.814
1088.4000, -78.157
1088.5000, -76.644
1088.6000, -77.460
1088.7000, -76.918
1088.8000, -76.640
1088.9000, -76.881
1089.0000, -76.688
1089.1000, -77.553
1089.2000, -77.143
1089.3000, -76.742
1089.4000, -76.556
1089.5000, -76.588
1089.6000, -77.575
1089.7000, -76.980
1089.8000, -76.101
1089.9000, -76.941
1090.0000, -76.620
1090.1000, -76.722
1090.2000, -76.446
1090.3000, -76.823
1090.4000, -76.199
1090.5000, -76.967
1090.6000, -76.531
1090.7000, -76.118
1090.8000, -76.499
1090.9000, -77.009
1091.0000, -76.954
1091.1000, -77.218
1091.2000, -75.983
1091.3000, -76.451
1091.4000, -76.505
1091.5000, -76.182
1091.6000, -75.644
1091.7000, -76.316
1091.8000, -76.104
1091.9000, -76.113
1092.0000, -76.494
1092.1000, -75.858
1092.2000, -76.739
1092.3000, -76.084
1092.4000, -75.558
1092.5000, -76.020
1092.6000, -76.277
1092.7000, -75.351
1092.8000, -76.944
1092.9000, -75.695
1093.0000, -75.218
1093.1000, -76.037
1093.2000, -75.699
1093.3000, -77.273
1093.4000, -75.448
1093.5000, -74.200
1093.6000, -77.812
1093.7000, -75.465
1093.8000, -76.015
1093.9000, -75.389
1094.0000, -75.305
1094.1000, -75.271
1094.2000, -74.931
1094.3000, -75.085
1094.4000, -75.147
1094.5000, -75.401
1094.6000, -75.231
1094.7000, -75.325
1094.8000, -75.196
1094.9000, -75.067
1095.0000, -74.774
1095.1000, -74.944
1095.2000, -74.446
1095.3000, -75.613
1095.4000, -74.310
1095.5000, -74.949
1095.6000, -74.340
1095.7000, -74.732
1095.8000, -74.353
1095.9000, -74.923
1096.0000, -74.449
1096.1000, -74.476
1096.2000, -74.634
1096.3000, -74.165
1096.4000, -74.015
1096.5000, -74.017
1096.6000, -74.075
1096.7000, -73.927
1096.8000, -74.567
1096.9000, -74.041
1097.0000, -74.087
1097.1000, -74.150
1097.2000, -73.872
1097.3000, -73.658
1097.4000, -74.029
1097.5000, -73.820
1097.6000, -73.357
1097.7000, -73.712
1097.8000, -73.018
1097.9000, -72.914
1098.0000, -73.942
1098.1000, -74.100
1098.2000, -73.156
1098.3000, -73.208
1098.4000, -73.782
1098.5000, -73.390
1098.6000, -72.708
1098.7000, -72.648
1098.8000, -72.989
1098.9000, -73.341
1099.0000, -73.299
1099.1000, -72.494
1099.2000, -73.174
1099.3000, -72.326
1099.4000, -72.946
1099.5000, -72.828
1099.6000, -72.689
1099.7000, -72.829
1099.8000, -72.320
1099.9000, -72.203
1100.0000, -71.948
1100.1000, -72.159
1100.2000, -72.308
1100.3000, -72.090
1100.4000, -72.473
1100.5000, -71.890
1100.6000, -72.041
1100.7000, -72.076
1100.8000, -71.809
1100.9000, -71.936
1101.0000, -71.794
1101.1000, -71.353
1101.2000, -71.433
1101.3000, -71.551
1101.4000, -71.310
1101.5000, -71.387
1101.6000, -71.701
1101.7000, -71.730
1101.8000, -71.532
1101.9000, -71.310
1102.0000, -70.480
1102.1000, -71.113
1102.2000, -71.382
1102.3000, -71.034
1102.4000, -70.900
1102.5000, -70.932
1102.6000, -70.611
1102.7000, -70.384
1102.8000, -70.580
1102.9000, -70.412
1103.0000, -70.512
1103.1000, -70.484
1103.2000, -70.552
1103.3000, -70.607
1103.4000, -70.229
1103.5000, -70.089
1103.6000, -70.315
1103.7000, -69.941
1103.8000, -70.052
1103.9000, -70.037
1104.0000, -69.962
1104.1000, -69.829
1104.2000, -69.802
1104.3000, -69.581
1104.4000, -69.531
1104.5000, -69.350
1104.6000, -69.493
1104.7000, -69.351
1104.8000, -69.214
1104.9000, -69.338
1105.0000, -68.928
1105.1000, -69.377
1105.2000, -68.891
1105.3000, -68.928
1105.4000, -68.635
1105.5000, -68.664
1105.6000, -68.556
1105.7000, -68.546
1105.8000, -68.414
1105.9000, -68.399
1106.0000, -68.218
1106.1000, -68.348
1106.2000, -68.397
1106.3000, -68.015
1106.4000, -68.002
1106.5000, -68.038
1106.6000, -67.977
1106.7000, -67.881
1106.8000, -67.776
1106.9000, -67.648
1107.0000, -67.582
1107.1000, -67.688
1107.2000, -67.523
1107.3000, -67.300
1107.4000, -67.476
1107.5000, -67.311
1107.6000, -67.037
1107.7000, -67.194
1107.8000, -67.093
1107.9000, -66.866
1108.0000, -66.861
1108.1000, -66.913
1108.2000, -66.627
1108.3000, -66.714
1108.4000, -66.584
1108.5000, -66.572
1108.6000, -66.366
1108.7000, -66.502
1108.8000, -66.333
1108.9000, -66.134
1109.0000, -66.660
1109.1000, -66.116
1109.2000, -65.791
1109.3000, -66.014
1109.4000, -65.886
1109.5000, -65.850
1109.6000, -65.804
1109.7000, -65.793
1109.8000, -65.683
1109.9000, -65.396
1110.0000, -65.674
1110.1000, -65.575
1110.2000, -65.285
1110.3000, -65.348
1110.4000, -65.296
1110.5000, -65.153
1110.6000, -65.141
1110.7000, -65.148
1110.8000, -64.993
1110.9000, -65.064
1111.0000, -64.965
1111.1000, -64.848
1111.2000, -64.857
1111.3000, -64.877
1111.4000, -64.704
1111.5000, -64.653
1111.6000, -64.713
1111.7000, -64.570
1111.8000, -64.499
1111.9000, -64.492
1112.0000, -64.444
1112.1000, -64.407
1112.2000, -64.308
1112.3000, -64.292
1112.4000, -64.216
1112.5000, -64.284
1112.6000, -64.177
1112.7000, -64.037
1112.8000, -64.054
1112.9000, -64.108
1113.0000, -64.067
1113.1000, -64.006
1113.2000, -64.046
1113.3000, -63.931
1113.4000, -63.877
1113.5000, -63.810
1113.6000, -63.773
1113.7000, -63.715
1113.8000, -63.781
1113.9000, -63.620
1114.0000, -63.613
1114.1000, -63.598
1114.2000, -63.497
1114.3000, -63.461
1114.4000, -63.337
1114.5000, -63.373
1114.6000, -63.386
1114.7000, -63.246
1114.8000, -63.264
1114.9000, -63.221
1115.0000, -63.137
1115.1000, -63.130
1115.2000, -63.197
1115.3000, -62.889
1115.4000, -62.992
1115.5000, -63.002
1115.6000, -62.936
1115.7000, -62.815
1115.8000, -62.877
1115.9000, -62.908
1116.0000, -62.851
1116.1000, -62.846
1116.2000, -62.758
1116.3000, -62.713
1116.4000, -62.819
1116.5000, -62.837
1116.6000, -62.801
1116.7000, -62.863
1116.8000, -62.881
1116.9000, -62.874
1117.0000, -62.832
1117.1000, -62.864
1117.2000, -62.865
1117.3000, -62.858
1117.4000, -62.963
1117.5000, -62.949
1117.6000, -63.002
1117.7000, -63.014
1117.8000, -63.036
1117.9000, -63.110
1118.0000, -63.190
1118.1000, -63.342
1118.2000, -63.196
1118.3000, -63.332
1118.4000, -63.486
1118.5000, -63.460
1118.6000, -63.589
1118.7000, -63.669
1118.8000, -63.654
1118.9000, -63.789
1119.0000, -63.860
1119.1000, -64.107
1119.2000, -64.062
1119.3000, -64.127
1119.4000, -64.297
1119.5000, -64.310
1119.6000, -64.379
1119.7000, -64.683
1119.8000, -64.641
1119.9000, -64.767
1120.0000, -64.992
1120.1000, -64.985
1120.2000, -65.071
1120.3000, -65.216
1120.4000, -65.350
1120.5000, -65.352
1120.6000, -65.408
1120.7000, -65.445
1120.8000, -65.500
1120.9000, -65.647
1121.0000, -65.810
1121.1000, -65.729
1121.2000, -65.845
1121.3000, -65.711
1121.4000, -65.769
1121.5000, -65.826
1121.6000, -65.661
1121.7000, -65.708
1121.8000, -65.748
1121.9000, -65.648
1122.0000, -65.583
1122.1000, -65.600
1122.2000, -65.539
1122.3000, -65.448
1122.4000, -65.336
1122.5000, -65.409
1122.6000, -65.424
1122.7000, -65.192
1122.8000, -65.242
1122.9000, -65.260
1123.0000, -65.311
1123.1000, -65.278
1123.2000, -65.405
1123.3000, -65.440
1123.4000, -65.546
1123.5000, -65.768
1123.6000, -65.848
1123.7000, -66.051
1123.8000, -66.340
1123.9000, -66.503
1124.0000, -66.710
1124.1000, -67.000
1124.2000, -67.341
1124.3000, -67.564
1124.4000, -68.010
1124.5000, -68.348
1124.6000, -68.622
1124.7000, -68.829
1124.8000, -69.349
1124.9000, -69.776
1125.0000, -70.111
1125.1000, -70.721
1125.2000, -70.590
1125.3000, -71.420
1125.4000, -71.807
1125.5000, -72.497
1125.6000, -72.542
1125.7000, -72.466
1125.8000, -73.326
1125.9000, -73.906
1126.0000, -74.107
1126.1000, -74.543
1126.2000, -75.320
1126.3000, -75.037
1126.4000, -74.744
1126.5000, -75.430
1126.6000, -75.533
1126.7000, -79.604
1126.8000, -76.098
1126.9000, -75.721
1127.0000, -76.927
1127.1000, -76.243
1127.2000, -78.665
1127.3000, -78.458
1127.4000, -77.188
1127.5000, -78.266
1127.6000, -79.002
1127.7000, -78.997
1127.8000, -79.197
1127.9000, -78.114
1128.0000, -77.713
1128.1000, -78.772
1128.2000, -79.741
1128.3000, -78.566
1128.4000, -83.071
1128.5000, -84.693
1128.6000, -76.886
1128.7000, -78.655
1128.8000, -83.037
1128.9000, -80.750
1129.0000, -84.220
1129.1000, -79.979
1129.2000, -80.647
1129.3000, -79.501
1129.4000, -77.772
1129.5000, -79.200
1129.6000, -87.358
1129.7000, -88.142
1129.8000, -79.323
1129.9000, -80.550
1130.0000, -79.988
1130.1000, -82.566
1130.2000, -79.736
1130.3000, -79.341
1130.4000, -80.305
1130.5000, -82.882
1130.6000, -86.201
1130.7000, -81.986
1130.8000, -77.815
1130.9000, -84.313
1131.0000, -82.292
1131.1000, -79.907
1131.2000, -85.936
1131.3000, -82.870
1131.4000, -79.387
1131.5000, -81.301
1131.6000, -80.077
1131.7000, -84.032
1131.8000, -82.680
1131.9000, -85.200
1132.0000, -85.012
1132.1000, -84.613
1132.2000, -81.384
1132.3000, -83.331
1132.4000,-210.000
1132.5000, -79.019
1132.6000, -83.032
1132.7000, -79.255
1132.8000, -82.592
1132.9000, -81.914
1133.0000, -81.903
1133.1000, -85.771
1133.2000, -85.935
1133.3000, -83.839
1133.4000, -81.562
1133.5000, -80.821
1133.6000, -83.329
1133.7000, -80.160
1133.8000, -83.377
1133.9000, -79.448
1134.0000, -81.323
1134.1000, -84.647
1134.2000, -84.175
1134.3000, -83.134
1134.4000, -80.206
1134.5000, -82.819
1134.6000, -80.858
1134.7000, -79.468
1134.8000, -85.062
1134.9000, -83.487
1135.0000, -84.157
1135.1000, -82.557
1135.2000, -80.314
1135.3000, -80.276
1135.4000, -81.817
1135.5000, -80.060
1135.6000, -83.693
1135.7000, -84.604
1135.8000, -80.561
1135.9000, -81.053
1136.0000, -80.122
1136.1000, -82.943
1136.2000, -84.951
1136.3000, -81.658
1136.4000, -80.291
1136.5000,-210.000
1136.6000, -80.179
1136.7000, -80.496
1136.8000, -83.112
1136.9000, -81.150
1137.0000, -79.871
1137.1000, -83.069
1137.2000, -83.641
1137.3000, -80.689
1137.4000, -79.900
1137.5000, -81.774
1137.6000, -81.262
1137.7000, -80.943
1137.8000, -81.995
1137.9000, -80.283
1138.0000, -80.743
1138.1000, -81.593
1138.2000, -82.349
1138.3000, -81.108
1138.4000, -81.326
1138.5000, -82.518
1138.6000, -81.441
1138.7000, -81.752
1138.8000, -80.947
1138.9000, -79.548
1139.0000, -81.390
1139.1000, -96.225
1139.2000, -82.518
1139.3000, -84.922
1139.4000, -81.116
1139.5000, -81.927
1139.6000, -84.064
1139.7000, -82.439
1139.8000, -84.342
1139.9000, -83.832
1140.0000, -80.894
1140.1000, -81.288
1140.2000, -83.097
1140.3000, -83.432
1140.4000, -82.446
1140.5000, -84.148
1140.6000, -91.060
1140.7000, -85.549
1140.8000, -85.192
1140.9000, -81.323
1141.0000, -83.126
1141.1000, -84.798
1141.2000, -91.627
1141.3000, -83.845
1141.4000, -83.363
1141.5000, -87.269
1141.6000, -81.523
1141.7000, -84.538
1141.8000, -88.573
1141.9000, -81.026
1142.0000, -85.789
1142.1000, -86.087
1142.2000, -84.097
1142.3000, -83.547
1142.4000, -82.480
1142.5000, -83.475
1142.6000, -83.589
1142.7000, -83.278
1142.8000, -86.914
1142.9000, -83.487
1143.0000, -86.721
1143.1000, -82.103
1143.2000, -88.577
1143.3000, -82.945
1143.4000, -83.971
1143.5000, -85.913
1143.6000, -85.501
1143.7000, -83.540
1143.8000, -83.066
1143.9000, -83.579
1144.0000, -86.260
1144.1000,-210.000
1144.2000, -85.285
1144.3000, -82.861
1144.4000, -82.184
1144.5000, -89.167
1144.6000, -87.168
1144.7000, -84.902
1144.8000, -85.257
1144.9000, -82.220
1145.0000, -82.660
1145.1000, -90.949
1145.2000, -83.880
1145.3000, -80.730
1145.4000, -83.538
1145.5000, -87.877
1145.6000, -85.706
1145.7000, -86.713
1145.8000, -85.660
1145.9000, -82.822
1146.0000, -82.594
1146.1000, -79.193
1146.2000,-210.000
1146.3000,-210.000
1146.4000, -84.123
1146.5000, -85.280
1146.6000, -86.347
1146.7000, -83.294
1146.8000,-210.000
1146.9000, -83.544
1147.0000, -87.054
1147.1000, -81.714
1147.2000, -99.354
1147.3000, -85.151
1147.4000, -85.395
1147.5000, -80.103
1147.6000,-210.000
1147.7000,-210.000
1147.8000, -86.819
1147.9000, -89.036
1148.0000, -85.102
1148.1000, -85.958
1148.2000, -84.641
1148.3000, -86.772
1148.4000, -83.984
1148.5000, -85.836
1148.6000, -90.368
1148.7000, -84.002
1148.8000, -82.973
1148.9000, -85.335
1149.0000, -86.022
1149.1000, -86.844
1149.2000, -85.185
1149.3000, -83.528
1149.4000, -85.049
1149.5000, -82.467
1149.6000,-210.000
1149.7000, -89.507
1149.8000, -80.667
1149.9000, -80.507
1150.0000,-210.000
1150.1000, -92.595
1150.2000, -83.774
1150.3000, -90.771
1150.4000, -83.693
1150.5000, -90.424
1150.6000, -84.613
1150.7000, -92.415
1150.8000, -82.497
1150.9000, -87.547
1151.0000, -80.315
1151.1000,-210.000
1151.2000, -81.586
1151.3000,-210.000
1151.4000, -81.584
1151.5000, -84.331
1151.6000,-210.000
1151.7000, -80.354
1151.8000,-210.000
1151.9000, -83.257
1152.0000, -89.092
1152.1000, -83.790
1152.2000, -83.982
1152.3000, -84.642
1152.4000,-210.000
1152.5000, -84.161
1152.6000, -83.076
1152.7000, -82.943
1152.8000, -90.147
1152.9000, -88.279
1153.0000, -91.973
1153.1000, -83.240
1153.2000, -85.976
1153.3000, -83.768
1153.4000, -86.317
1153.5000, -82.111
1153.6000, -83.237
1153.7000,-210.000
1153.8000, -82.748
1153.9000, -95.896
1154.0000, -83.333
1154.1000, -88.496
1154.2000, -87.058
1154.3000, -84.965
1154.4000, -85.159
1154.5000, -91.156
1154.6000, -84.010
1154.7000, -83.243
1154.8000, -83.153
1154.9000, -90.478
1155.0000,-100.807
1155.1000, -83.725
1155.2000, -85.151
1155.3000, -82.227
1155.4000, -85.572
1155.5000, -95.494
1155.6000, -83.204
1155.7000, -84.205
1155.8000,-210.000
1155.9000, -79.725
1156.0000, -81.505
1156.1000, -80.777
1156.2000, -82.861
1156.3000, -86.241
1156.4000, -81.498
1156.5000, -81.030
1156.6000, -84.611
1156.7000,-210.000
1156.8000, -80.892
1156.9000, -85.301
1157.0000, -83.141
1157.1000,-210.000
1157.2000, -88.689
1157.3000, -80.799
1157.4000,-210.000
1157.5000, -83.677
1157.6000, -83.674
1157.7000,-210.000
1157.8000, -84.592
1157.9000, -88.402
1158.0000,-210.000
1158.1000, -83.631
1158.2000, -83.440
1158.3000, -83.854
1158.4000, -84.044
1158.5000, -83.242
1158.6000, -86.515
1158.7000, -87.241
1158.8000, -96.287
1158.9000, -84.344
1159.0000, -81.929
1159.1000, -84.212
1159.2000, -83.364
1159.3000, -87.111
1159.4000,-210.000
1159.5000, -81.814
1159.6000, -87.686
1159.7000, -82.460
1159.8000, -85.995
1159.9000, -81.913
1160.0000, -89.869
1160.1000, -91.379
1160.2000, -81.790
1160.3000, -86.795
1160.4000, -82.403
1160.5000,-210.000
1160.6000, -82.232
1160.7000, -85.433
1160.8000, -84.223
1160.9000, -84.978
1161.0000, -84.455
1161.1000, -84.417
1161.2000,-210.000
1161.3000, -84.506
1161.4000, -81.441
1161.5000, -82.678
1161.6000,-210.000
1161.7000, -80.918
1161.8000, -83.711
1161.9000, -83.720
1162.0000, -83.043
1162.1000, -83.877
1162.2000, -85.877
1162.3000, -80.342
1162.4000, -84.153
1162.5000, -83.724
1162.6000, -87.907
1162.7000, -81.522
1162.8000,-210.000
1162.9000, -82.277
1163.0000, -91.941
1163.1000, -83.676
1163.2000, -91.381
1163.3000, -81.629
1163.4000, -81.496
1163.5000,-100.446
1163.6000, -84.543
1163.7000, -82.670
1163.8000, -85.137
1163.9000, -81.605
1164.0000, -92.881
1164.1000, -81.513
1164.2000, -80.298
1164.3000, -84.761
1164.4000, -92.004
1164.5000,-210.000
1164.6000, -81.973
1164.7000, -80.825
1164.8000, -86.775
1164.9000, -83.322
1165.0000,-210.000
1165.1000, -78.427
1165.2000, -81.834
1165.3000, -87.973
1165.4000,-210.000
1165.5000, -93.147
1165.6000, -79.504
1165.7000, -85.268
1165.8000, -81.300
1165.9000, -89.691
1166.0000, -91.111
1166.1000, -85.891
1166.2000, -82.229
1166.3000, -78.609
1166.4000,-210.000
1166.5000, -81.951
1166.6000, -95.410
1166.7000, -83.186
1166.8000,-210.000
1166.9000, -80.965
1167.0000,-210.000
1167.1000, -84.165
1167.2000, -81.283
1167.3000,-210.000
1167.4000, -82.447
1167.5000, -81.997
1167.6000, -80.333
1167.7000, -85.326
1167.8000, -84.662
1167.9000,-210.000
1168.0000, -92.466
1168.1000,-210.000
1168.2000, -78.895
1168.3000, -83.412
1168.4000, -81.420
1168.5000, -96.612
1168.6000, -81.398
1168.7000, -83.720
1168.8000,-210.000
1168.9000, -85.998
1169.0000, -85.404
1169.1000,-210.000
1169.2000, -80.826
1169.3000, -88.050
1169.4000,-210.000
1169.5000, -82.170
1169.6000, -84.404
1169.7000, -91.120
1169.8000, -81.708
1169.9000, -88.208
1170.0000, -89.191
1170.1000, -90.320
1170.2000, -81.887
1170.3000, -91.413
1170.4000, -88.877
1170.5000, -83.005
1170.6000, -82.860
1170.7000,-210.000
1170.8000, -89.856
1170.9000, -84.962
1171.0000, -86.484
1171.1000, -90.212
1171.2000, -82.498
1171.3000, -84.459
1171.4000, -83.666
1171.5000, -82.451
1171.6000, -83.690
1171.7000, -83.931
1171.8000, -83.878
1171.9000, -89.578
1172.0000, -84.328
1172.1000, -83.459
1172.2000, -87.081
1172.3000, -85.973
1172.4000, -85.979
1172.5000, -85.491
1172.6000, -86.536
1172.7000, -84.292
1172.8000, -88.056
1172.9000, -83.219
1173.0000, -84.404
1173.1000, -90.062
1173.2000, -85.262
1173.3000, -83.837
1173.4000, -91.594
1173.5000,-210.000
1173.6000, -83.997
1173.7000, -84.947
1173.8000,-101.367
1173.9000, -79.709
1174.0000,-210.000
1174.1000, -91.451
1174.2000, -89.863
1174.3000, -82.104
1174.4000, -83.556
1174.5000, -85.893
1174.6000, -85.006
1174.7000, -86.727
1174.8000, -87.989
1174.9000, -84.550
1175.0000, -88.617
1175.1000, -82.940
1175.2000, -88.060
1175.3000, -83.583
1175.4000,-210.000
1175.5000, -88.800
1175.6000, -81.988
1175.7000, -86.546
1175.8000, -90.120
1175.9000, -82.784
1176.0000, -98.127
1176.1000, -86.840
1176.2000, -82.850
1176.3000, -83.358
1176.4000, -90.720
1176.5000, -83.786
1176.6000, -87.203
1176.7000, -84.944
1176.8000, -89.862
1176.9000, -84.059
1177.0000, -87.041
1177.1000, -89.074
1177.2000, -83.597
1177.3000, -83.425
1177.4000, -87.938
1177.5000, -88.396
1177.6000, -83.582
1177.7000,-210.000
1177.8000, -78.955
1177.9000, -87.370
1178.0000,-210.000
1178.1000, -79.695
1178.2000, -85.975
1178.3000,-210.000
1178.4000, -81.152
1178.5000,-210.000
1178.6000, -89.973
1178.7000, -80.379
1178.8000,-210.000
1178.9000, -80.334
1179.0000, -86.997
1179.1000, -86.796
1179.2000,-210.000
1179.3000, -79.283
1179.4000,-210.000
1179.5000, -80.070
1179.6000,-210.000
1179.7000, -99.793
1179.8000, -86.744
1179.9000, -79.694
1180.0000, -82.942
1180.1000, -97.417
1180.2000, -82.802
1180.3000,-210.000
1180.4000,-210.000
1180.5000, -82.172
1180.6000, -89.302
1180.7000, -95.144
1180.8000, -83.677
1180.9000, -84.357
1181.0000, -85.527
1181.1000,-210.000
1181.2000, -83.159
1181.3000, -83.574
1181.4000, -86.931
1181.5000, -84.331
1181.6000, -83.575
1181.7000, -86.141
1181.8000, -93.098
1181.9000, -82.336
1182.0000,-210.000
1182.1000, -83.322
1182.2000,-210.000
1182.3000, -82.845
1182.4000,-210.000
1182.5000, -81.580
1182.6000, -86.682
1182.7000, -81.375
1182.8000, -84.024
1182.9000, -81.806
1183.0000, -89.667
1183.1000, -85.788
1183.2000, -84.000
1183.3000, -92.550
1183.4000, -82.619
1183.5000,-210.000
1183.6000,-210.000
1183.7000, -84.422
1183.8000, -87.135
1183.9000, -88.275
1184.0000, -86.485
1184.1000, -82.461
1184.2000,-210.000
1184.3000, -84.123
1184.4000, -83.019
1184.5000, -81.069
1184.6000,-210.000
1184.7000, -85.552
1184.8000, -92.308
1184.9000, -83.971
1185.0000, -82.335
1185.1000, -94.387
1185.2000, -85.604
1185.3000, -89.297
1185.4000, -83.070
1185.5000,-210.000
1185.6000, -82.228
1185.7000, -90.275
1185.8000, -81.708
1185.9000, -95.219
1186.0000, -86.942
1186.1000, -84.917
1186.2000, -91.478
1186.3000, -95.312
1186.4000, -82.024
1186.5000, -82.227
1186.6000, -81.305
1186.7000,-210.000
1186.8000, -85.799
1186.9000, -84.600
1187.0000,-210.000
1187.1000, -82.469
1187.2000, -85.647
1187.3000, -85.850
1187.4000, -85.752
1187.5000, -90.762
1187.6000, -87.446
1187.7000,-210.000
1187.8000, -84.617
1187.9000, -83.143
1188.0000, -82.748
1188.1000, -95.758
1188.2000, -83.992
1188.3000, -87.328
1188.4000, -83.530
1188.5000, -81.991
1188.6000, -83.777
1188.7000, -81.816
1188.8000,-210.000
1188.9000, -84.995
1189.0000, -83.354
1189.1000, -90.817
1189.2000, -86.257
1189.3000, -84.707
1189.4000, -89.095
1189.5000, -83.852
1189.6000, -83.902
1189.7000, -83.788
1189.8000, -89.462
1189.9000, -87.261
1190.0000, -82.101
1190.1000, -83.871
1190.2000, -84.942
1190.3000, -84.355
1190.4000, -86.340
1190.5000, -84.524
1190.6000, -81.752
1190.7000, -85.519
1190.8000, -93.427
1190.9000, -85.237
1191.0000, -83.019
1191.1000, -85.286
1191.2000, -82.914
1191.3000, -84.971
1191.4000, -83.237
1191.5000, -82.807
1191.6000, -81.844
1191.7000, -84.691
1191.8000, -84.179
1191.9000, -83.993
1192.0000, -90.651
1192.1000, -84.671
1192.2000, -82.198
1192.3000, -85.260
1192.4000, -82.216
1192.5000, -86.858
1192.6000, -83.157
1192.7000, -92.287
1192.8000, -83.279
1192.9000, -85.662
1193.0000, -85.109
1193.1000, -81.764
1193.2000, -85.091
1193.3000, -84.369
1193.4000, -83.290
1193.5000, -82.559
1193.6000, -84.225
1193.7000, -83.850
1193.8000, -84.713
1193.9000, -83.679
1194.0000, -83.043
1194.1000, -85.353
1194.2000, -85.311
1194.3000, -82.136
1194.4000,-210.000
1194.5000, -83.982
1194.6000, -85.367
1194.7000, -80.564
1194.8000, -86.943
1194.9000, -82.182
1195.0000,-210.000
1195.1000, -81.090
1195.2000, -79.976
1195.3000, -90.835
1195.4000, -87.472
1195.5000,-210.000
1195.6000, -81.026
1195.7000, -83.807
1195.8000, -82.828
1195.9000, -82.688
1196.0000, -84.891
1196.1000,-210.000
1196.2000, -79.792
1196.3000, -80.388
1196.4000, -83.408
1196.5000, -83.159
1196.6000, -85.085
1196.7000, -84.850
1196.8000, -89.899
1196.9000,-210.000
1197.0000, -80.737
1197.1000,-210.000
1197.2000, -79.543
1197.3000, -90.779
1197.4000, -86.977
1197.5000, -89.546
1197.6000, -85.459
1197.7000,-102.600
1197.8000, -82.754
1197.9000,-210.000
1198.0000, -80.572
1198.1000,-210.000
1198.2000, -81.926
1198.3000, -86.704
1198.4000, -83.609
1198.5000,-210.000
1198.6000, -83.700
1198.7000, -81.885
1198.8000, -81.731
1198.9000, -90.637
1199.0000,-100.491
1199.1000, -86.007
1199.2000, -85.844
1199.3000, -79.783
1199.4000, -81.513
1199.5000, -94.734
1199.6000, -84.179
1199.7000, -84.362
1199.8000, -96.446
1199.9000,-210.000
1200.0000, -79.813
1200.1000,-210.000
1200.2000, -82.524
1200.3000, -84.257
1200.4000,-210.000
1200.5000, -85.028
1200.6000, -84.518
1200.7000, -81.904
1200.8000,-210.000
1200.9000, -89.223
1201.0000, -87.831
1201.1000, -80.774
1201.2000,-210.000
1201.3000, -85.781
1201.4000, -85.664
1201.5000, -92.578
1201.6000, -82.922
1201.7000, -87.654
1201.8000, -82.159
1201.9000, -98.442
1202.0000, -88.625
1202.1000, -81.412
1202.2000,-210.000
1202.3000,-210.000
1202.4000, -88.660
1202.5000, -82.471
1202.6000, -86.637
1202.7000,-100.994
1202.8000, -94.997
1202.9000, -84.091
1203.0000, -83.612
1203.1000, -85.643
1203.2000, -93.225
1203.3000, -84.959
1203.4000, -86.261
1203.5000, -85.966
1203.6000, -85.276
1203.7000,-210.000
1203.8000, -86.353
1203.9000,-210.000
1204.0000, -83.781
1204.1000, -82.141
1204.2000, -85.892
1204.3000, -82.721
1204.4000,-210.000
1204.5000, -83.742
1204.6000, -86.510
1204.7000, -85.156
1204.8000, -84.521
1204.9000, -92.952
1205.0000, -85.098
1205.1000, -83.264
1205.2000, -84.432
1205.3000, -85.179
1205.4000, -82.949
1205.5000,-210.000
1205.6000, -81.258
1205.7000, -85.508
1205.8000, -86.584
1205.9000,-210.000
1206.0000, -85.363
1206.1000, -84.511
1206.2000, -81.601
1206.3000, -88.638
1206.4000, -84.814
1206.5000, -92.051
1206.6000, -88.904
1206.7000, -85.385
1206.8000, -90.369
1206.9000, -84.177
1207.0000, -86.885
1207.1000, -85.956
1207.2000, -82.889
1207.3000, -83.727
1207.4000, -83.769
1207.5000,-210.000
1207.6000, -86.298
1207.7000, -85.112
1207.8000, -83.386
1207.9000,-210.000
1208.0000, -87.479
1208.1000, -83.261
1208.2000, -88.958
1208.3000, -82.734
1208.4000, -86.582
1208.5000, -83.015
1208.6000, -86.520
1208.7000, -82.599
1208.8000,-210.000
1208.9000, -84.338
1209.0000, -90.284
1209.1000, -84.175
1209.2000,-210.000
1209.3000, -85.206
1209.4000, -89.615
1209.5000, -86.241
1209.6000, -90.272
1209.7000, -84.016
1209.8000, -88.372
1209.9000, -88.239
1210.0000,-210.000
1210.1000, -83.226
1210.2000, -88.421
1210.3000, -89.738
1210.4000, -87.162
1210.5000, -85.058
1210.6000, -94.386
1210.7000, -82.384
1210.8000,-210.000
1210.9000, -89.963
1211.0000, -88.587
1211.1000, -84.343
1211.2000, -92.353
1211.3000, -84.752
1211.4000, -88.192
1211.5000, -84.554
1211.6000, -86.309
1211.7000, -85.020
1211.8000, -82.745
1211.9000, -86.163
1212.0000,-210.000
1212.1000, -86.753
1212.2000, -83.059
1212.3000, -84.608
1212.4000, -83.109
1212.5000,-210.000
1212.6000, -83.861
1212.7000, -84.602
1212.8000, -81.839
1212.9000, -80.232
1213.0000, -83.941
1213.1000, -86.952
1213.2000,-210.000
1213.3000, -82.988
1213.4000,-210.000
1213.5000, -84.607
1213.6000, -86.096
1213.7000, -84.850
1213.8000, -90.569
1213.9000, -78.208
1214.0000, -87.213
1214.1000, -82.606
1214.2000, -91.453
1214.3000,-210.000
1214.4000,-210.000
1214.5000, -85.731
1214.6000, -97.336
1214.7000, -87.861
1214.8000, -88.683
1214.9000, -85.112
1215.0000, -91.448
1215.1000, -83.821
1215.2000, -81.878
1215.3000, -88.425
1215.4000,-210.000
1215.5000, -86.499
1215.6000, -87.858
1215.7000, -84.430
1215.8000, -87.351
1215.9000, -85.877
1216.0000, -86.619
1216.1000, -86.199
1216.2000, -84.782
1216.3000, -82.527
1216.4000, -89.882
1216.5000, -89.303
1216.6000, -86.375
1216.7000, -87.444
1216.8000, -92.358
1216.9000, -82.905
1217.0000, -92.933
1217.1000, -87.795
1217.2000, -89.748
1217.3000, -82.721
1217.4000,-210.000
1217.5000, -83.434
1217.6000, -84.741
1217.7000, -84.108
1217.8000, -86.709
1217.9000,-210.000
1218.0000, -88.367
1218.1000, -88.439
1218.2000, -85.989
1218.3000, -84.583
1218.4000, -83.642
1218.5000, -85.478
1218.6000, -87.171
1218.7000, -86.770
1218.8000, -83.943
1218.9000, -86.481
1219.0000, -85.824
1219.1000, -85.617
1219.2000, -87.336
1219.3000, -88.989
1219.4000, -83.049
1219.5000, -84.851
1219.6000,-210.000
1219.7000, -82.517
1219.8000, -93.633
1219.9000, -89.703
1220.0000, -86.584
1220.1000, -84.738
1220.2000,-210.000
1220.3000, -83.727
1220.4000,-210.000
1220.5000, -84.236
1220.6000, -87.019
1220.7000, -85.174
1220.8000, -86.030
1220.9000,-210.000
1221.0000, -86.086
1221.1000, -83.671
1221.2000, -88.607
1221.3000, -80.755
1221.4000, -87.359
1221.5000,-210.000
1221.6000, -82.820
1221.7000, -85.701
1221.8000, -97.318
1221.9000, -81.218
1222.0000,-210.000
1222.1000, -89.903
1222.2000,-210.000
1222.3000, -89.154
1222.4000, -84.658
1222.5000, -86.928
1222.6000, -85.396
1222.7000, -83.571
1222.8000, -89.867
1222.9000,-210.000
1223.0000, -83.309
1223.1000, -89.643
1223.2000, -90.875
1223.3000, -84.808
1223.4000,-210.000
1223.5000, -82.170
1223.6000, -88.580
1223.7000, -84.750
1223.8000, -96.887
1223.9000, -93.957
1224.0000, -83.832
1224.1000, -82.714
1224.2000, -87.097
1224.3000,-210.000
1224.4000, -87.085
1224.5000, -88.681
1224.6000, -87.954
1224.7000, -86.822
1224.8000, -86.455
1224.9000, -83.710
1225.0000, -85.529
1225.1000, -84.956
1225.2000, -87.982
1225.3000, -85.583
1225.4000, -82.351
1225.5000, -93.230
1225.6000, -85.405
1225.7000, -94.356
1225.8000, -88.189
1225.9000, -82.459
1226.0000, -99.584
1226.1000, -82.754
1226.2000, -86.859
1226.3000, -81.637
1226.4000, -90.480
1226.5000, -87.690
1226.6000, -85.604
1226.7000, -88.503
1226.8000, -85.958
1226.9000,-210.000
1227.0000, -81.644
1227.1000,-210.000
1227.2000, -84.919
1227.3000,-110.879
1227.4000, -85.128
1227.5000, -88.367
1227.6000, -85.087
1227.7000, -88.294
1227.8000, -82.036
1227.9000, -86.345
1228.0000, -90.514
1228.1000, -84.851
1228.2000, -85.421
1228.3000, -86.817
1228.4000, -83.371
1228.5000, -83.580
1228.6000, -88.982
1228.7000, -86.152
1228.8000, -94.885
1228.9000, -80.849
1229.0000, -88.991
1229.1000, -85.116
1229.2000, -87.830
1229.3000, -93.927
1229.4000, -81.722
1229.5000,-210.000
1229.6000, -83.235
1229.7000, -88.911
1229.8000, -84.098
1229.9000, -87.047
1230.0000, -91.494
1230.1000, -82.538
1230.2000,-210.000
1230.3000, -83.633
1230.4000, -87.529
1230.5000, -89.329
1230.6000, -84.750
1230.7000, -90.432
1230.8000, -83.961
1230.9000, -98.063
1231.0000, -84.899
1231.1000, -83.937
1231.2000,-210.000
1231.3000, -82.083
1231.4000, -80.907
1231.5000, -81.164
1231.6000, -85.991
1231.7000, -92.110
1231.8000,-210.000
1231.9000, -98.621
1232.0000, -94.287
1232.1000, -84.990
1232.2000, -85.733
1232.3000, -84.922
1232.4000,-210.000
1232.5000, -96.972
1232.6000, -86.373
1232.7000, -81.608
1232.8000,-100.579
1232.9000, -86.845
1233.0000, -81.248
1233.1000,-210.000
1233.2000, -83.512
1233.3000,-210.000
1233.4000, -84.132
1233.5000, -86.878
1233.6000, -85.471
1233.7000, -93.420
1233.8000, -85.747
1233.9000, -85.966
1234.0000, -85.595
1234.1000, -84.045
1234.2000, -85.839
1234.3000, -84.105
1234.4000, -86.638
1234.5000, -89.112
1234.6000,-210.000
1234.7000, -86.534
1234.8000, -88.228
1234.9000, -86.763
1235.0000, -90.078
1235.1000, -82.651
1235.2000,-210.000
1235.3000, -89.087
1235.4000, -91.117
1235.5000, -89.726
1235.6000, -82.585
1235.7000, -89.877
1235.8000, -86.832
1235.9000,-210.000
1236.0000, -81.430
1236.1000, -84.915
1236.2000, -83.173
1236.3000, -89.283
1236.4000, -90.010
1236.5000, -84.563
1236.6000, -87.668
1236.7000, -84.795
1236.8000, -82.839
1236.9000, -84.991
1237.0000, -91.510
1237.1000, -83.573
1237.2000, -83.139
1237.3000, -82.215
1237.4000,-210.000
1237.5000, -85.306
1237.6000, -95.835
1237.7000,-210.000
1237.8000, -99.431
1237.9000, -92.726
1238.0000, -83.220
1238.1000, -84.579
1238.2000, -94.292
1238.3000, -82.352
1238.4000, -90.072
1238.5000,-210.000
1238.6000, -82.976
1238.7000, -84.012
1238.8000,-210.000
1238.9000, -85.431
1239.0000, -86.235
1239.1000, -86.536
1239.2000, -81.971
1239.3000, -88.374
1239.4000, -90.337
1239.5000, -87.963
1239.6000, -84.476
1239.7000,-210.000
1239.8000, -84.049
1239.9000, -83.940
1240.0000, -94.378
1240.1000, -83.518
1240.2000, -83.282
1240.3000, -88.241
1240.4000, -85.207
1240.5000, -89.247
1240.6000, -83.735
1240.7000, -84.134
1240.8000,-210.000
1240.9000, -87.650
1241.0000, -88.793
1241.1000, -83.292
1241.2000, -97.040
1241.3000, -87.884
1241.4000, -87.090
1241.5000, -84.983
1241.6000, -86.740
1241.7000, -87.197
1241.8000, -85.246
1241.9000, -87.168
1242.0000, -85.618
1242.1000, -86.798
1242.2000, -87.928
1242.3000, -85.413
1242.4000,-210.000
1242.5000, -86.760
1242.6000, -85.293
1242.7000, -84.251
1242.8000, -82.822
1242.9000,-210.000
1243.0000, -82.687
1243.1000,-210.000
1243.2000,-210.000
1243.3000,-210.000
1243.4000, -85.153
1243.5000, -84.034
1243.6000,-210.000
1243.7000, -90.726
1243.8000, -87.883
1243.9000, -84.738
1244.0000, -89.077
1244.1000, -85.551
1244.2000, -89.983
1244.3000, -84.063
1244.4000, -87.363
1244.5000, -84.339
1244.6000, -87.739
1244.7000, -85.404
1244.8000, -92.711
1244.9000, -84.769
1245.0000,-210.000
1245.1000, -86.424
1245.2000, -81.444
1245.3000, -83.640
1245.4000, -82.682
1245.5000, -89.206
1245.6000, -85.195
1245.7000,-210.000
1245.8000, -81.322
1245.9000, -83.062
1246.0000,-210.000
1246.1000,-210.000
1246.2000, -80.708
1246.3000,-210.000
1246.4000, -85.294
1246.5000, -89.956
1246.6000, -83.693
1246.7000, -85.943
1246.8000,-210.000
1246.9000, -82.953
1247.0000, -87.677
1247.1000, -83.253
1247.2000,-210.000
1247.3000, -87.910
1247.4000, -90.179
1247.5000, -85.760
1247.6000, -85.986
1247.7000, -89.083
1247.8000, -88.026
1247.9000, -82.966
1248.0000, -92.949
1248.1000,-210.000
1248.2000, -85.236
1248.3000, -89.168
1248.4000, -81.520
1248.5000,-210.000
1248.6000, -83.907
1248.7000,-210.000
1248.8000, -85.507
1248.9000, -87.457
1249.0000, -82.911
1249.1000, -89.177
1249.2000, -88.576
1249.3000, -84.902
1249.4000, -90.495
1249.5000, -82.753
1249.6000, -84.511
1249.7000, -85.070
1249.8000, -90.524
1249.9000, -84.015
1250.0000, -83.863
1250.1000, -83.760
1250.2000, -84.560
1250.3000, -88.521
1250.4000, -82.865
1250.5000, -93.331
1250.6000, -82.916
1250.7000, -83.414
1250.8000, -86.652
1250.9000, -86.025
1251.0000, -84.343
1251.1000, -87.237
1251.2000, -88.647
1251.3000, -85.633
1251.4000, -84.328
1251.5000, -91.902
1251.6000, -85.316
1251.7000, -81.704
1251.8000,-210.000
1251.9000, -89.247
1252.0000, -89.608
1252.1000, -85.298
1252.2000, -85.021
1252.3000, -93.399
1252.4000, -88.830
1252.5000, -82.973
1252.6000, -91.600
1252.7000,-210.000
1252.8000, -84.620
1252.9000,-210.000
1253.0000, -82.733
1253.1000, -94.837
1253.2000, -90.971
1253.3000, -83.691
1253.4000, -85.197
1253.5000, -85.207
1253.6000, -85.973
1253.7000,-210.000
1253.8000, -82.456
1253.9000, -82.100
1254.0000, -87.559
1254.1000, -91.058
1254.2000, -84.054
1254.3000, -80.867
1254.4000,-210.000
1254.5000,-210.000
1254.6000, -79.876
1254.7000, -87.839
1254.8000, -89.415
1254.9000, -83.325
1255.0000, -87.347
1255.1000, -82.970
1255.2000,-210.000
1255.3000, -84.548
1255.4000, -86.648
1255.5000, -80.271
1255.6000, -88.247
1255.7000, -93.002
1255.8000, -89.276
1255.9000, -84.791
1256.0000, -84.692
1256.1000, -83.411
1256.2000, -82.446
1256.3000,-210.000
1256.4000, -83.791
1256.5000, -85.248
1256.6000, -84.626
1256.7000, -86.986
1256.8000, -84.495
1256.9000, -84.784
1257.0000, -85.011
1257.1000, -91.577
1257.2000, -84.728
1257.3000, -86.002
1257.4000, -85.677
1257.5000, -87.954
1257.6000, -85.754
1257.7000, -87.478
1257.8000, -93.410
1257.9000, -82.896
1258.0000,-210.000
1258.1000, -85.581
1258.2000, -83.135
1258.3000,-210.000
1258.4000, -83.911
1258.5000, -83.569
1258.6000, -83.709
1258.7000, -84.143
1258.8000, -86.817
1258.9000, -94.913
1259.0000, -87.135
1259.1000, -85.690
1259.2000, -87.467
1259.3000, -87.620
1259.4000, -84.764
1259.5000, -82.598
1259.6000, -82.838
1259.7000,-210.000
1259.8000, -88.161
1259.9000, -88.186
1260.0000, -81.588
1260.1000,-210.000
1260.2000, -85.155
1260.3000, -85.394
1260.4000,-210.000
1260.5000, -83.637
1260.6000, -88.422
1260.7000, -91.923
1260.8000, -98.672
1260.9000, -88.210
1261.0000, -82.037
1261.1000,-210.000
1261.2000, -90.287
1261.3000,-210.000
1261.4000, -85.966
1261.5000, -87.683
1261.6000, -85.361
1261.7000, -91.787
1261.8000, -87.260
1261.9000, -85.990
1262.0000, -82.290
1262.1000, -89.198
1262.2000, -91.762
1262.3000, -94.025
1262.4000, -83.067
1262.5000, -89.525
1262.6000, -88.652
1262.7000, -83.716
1262.8000, -84.429
1262.9000, -92.239
1263.0000, -85.106
1263.1000, -85.458
1263.2000, -93.433
1263.3000, -89.581
1263.4000, -83.764
1263.5000,-210.000
1263.6000, -84.799
1263.7000, -92.149
1263.8000, -83.698
1263.9000, -99.185
1264.0000, -85.989
1264.1000, -84.168
1264.2000, -85.953
1264.3000, -89.813
1264.4000, -81.842
1264.5000, -84.793
1264.6000, -84.130
1264.7000, -81.592
1264.8000, -85.031
1264.9000, -83.149
1265.0000, -86.717
1265.1000, -85.215
1265.2000,-210.000
1265.3000,-210.000
1265.4000, -78.726
1265.5000,-210.000
1265.6000, -90.133
1265.7000, -88.142
1265.8000, -84.711
1265.9000, -82.786
1266.0000, -84.874
1266.1000,-210.000
1266.2000, -84.857
1266.3000, -84.737
1266.4000, -91.280
1266.5000, -83.055
1266.6000, -85.193
1266.7000,-210.000
1266.8000,-210.000
1266.9000, -82.351
1267.0000, -80.471
1267.1000, -91.893
1267.2000,-210.000
1267.3000, -79.716
1267.4000,-210.000
1267.5000, -81.156
1267.6000,-210.000
1267.7000, -82.960
1267.8000, -87.041
1267.9000, -86.696
1268.0000, -81.217
1268.1000,-210.000
1268.2000,-210.000
1268.3000,-210.000
1268.4000, -87.636
1268.5000, -81.260
1268.6000, -84.883
1268.7000,-210.000
1268.8000,-210.000
1268.9000, -88.198
1269.0000, -85.677
1269.1000,-210.000
1269.2000, -94.307
1269.3000, -84.205
1269.4000, -85.447
1269.5000,-210.000
1269.6000, -82.394
1269.7000, -82.917
1269.8000, -88.147
1269.9000,-210.000
1270.0000, -89.947
1270.1000,-210.000
1270.2000, -82.172
1270.3000, -84.690
1270.4000,-210.000
1270.5000, -86.360
1270.6000, -89.203
1270.7000, -86.454
1270.8000, -87.181
1270.9000, -85.256
1271.0000,-210.000
1271.1000, -83.078
1271.2000, -89.374
1271.3000, -83.047
1271.4000, -90.676
1271.5000,-210.000
1271.6000, -86.904
1271.7000, -84.050
1271.8000, -86.619
1271.9000, -92.625
1272.0000, -94.092
1272.1000, -87.964
1272.2000,-210.000
1272.3000, -88.381
1272.4000, -81.920
1272.5000, -84.041
1272.6000, -87.754
1272.7000,-210.000
1272.8000, -82.498
1272.9000, -86.685
1273.0000, -86.974
1273.1000, -87.341
1273.2000, -97.919
1273.3000, -83.691
1273.4000,-210.000
1273.5000, -82.897
1273.6000, -92.306
1273.7000, -84.153
1273.8000, -83.645
1273.9000, -83.757
1274.0000, -83.660
1274.1000, -84.653
1274.2000, -83.885
1274.3000,-210.000
1274.4000, -82.004
1274.5000,-210.000
1274.6000, -85.095
1274.7000, -85.976
1274.8000, -83.724
1274.9000, -83.361
1275.0000, -89.031
1275.1000,-210.000
1275.2000, -86.495
1275.3000, -85.877
1275.4000, -86.081
1275.5000,-103.159
1275.6000, -84.435
1275.7000,-210.000
1275.8000,-210.000
1275.9000,-110.421
1276.0000, -84.364
1276.1000, -83.569
1276.2000,-210.000
1276.3000, -84.930
1276.4000,-210.000
1276.5000, -87.218
1276.6000, -85.475
1276.7000,-210.000
1276.8000, -82.622
1276.9000,-210.000
1277.0000, -83.224
1277.1000,-210.000
1277.2000, -84.532
1277.3000, -88.676
1277.4000, -82.773
1277.5000, -86.352
1277.6000, -84.810
1277.7000,-210.000
1277.8000, -85.233
1277.9000,-210.000
1278.0000, -83.606
1278.1000, -83.174
1278.2000, -84.818
1278.3000, -85.427
1278.4000, -87.584
1278.5000, -84.832
1278.6000,-210.000
1278.7000, -84.095
1278.8000, -84.332
1278.9000, -87.793
1279.0000,-210.000
1279.1000, -90.904
1279.2000, -85.236
1279.3000, -88.692
1279.4000, -84.158
1279.5000, -88.606
1279.6000, -85.975
1279.7000, -93.989
1279.8000, -84.751
1279.9000, -95.145
1280.0000, -87.324
1280.1000, -87.397
1280.2000, -85.459
1280.3000, -85.389
1280.4000, -90.903
1280.5000, -85.234
1280.6000,-210.000
1280.7000, -82.693
1280.8000, -84.167
1280.9000, -85.808
1281.0000, -92.715
1281.1000, -84.754
1281.2000, -83.091
1281.3000, -81.045
1281.4000, -85.815
1281.5000,-210.000
1281.6000, -89.319
1281.7000, -89.734
1281.8000, -87.359
1281.9000, -83.668
1282.0000, -89.601
1282.1000, -85.255
1282.2000, -85.249
1282.3000, -89.223
1282.4000, -84.324
1282.5000, -84.448
1282.6000, -91.198
1282.7000, -85.227
1282.8000,-210.000
1282.9000, -82.679
1283.0000, -87.874
1283.1000, -82.800
1283.2000, -89.550
1283.3000, -85.752
1283.4000, -86.342
1283.5000, -90.159
1283.6000, -84.830
1283.7000, -85.321
1283.8000,-210.000
1283.9000, -85.659
1284.0000, -88.703
1284.1000, -87.552
1284.2000, -86.607
1284.3000, -84.802
1284.4000, -85.017
1284.5000, -85.819
1284.6000,-210.000
1284.7000, -86.151
1284.8000, -83.752
1284.9000, -84.975
1285.0000, -86.485
1285.1000, -90.508
1285.2000, -85.829
1285.3000, -84.019
1285.4000, -84.170
1285.5000, -97.522
1285.6000, -89.413
1285.7000, -83.547
1285.8000, -87.146
1285.9000, -87.298
1286.0000,-210.000
1286.1000, -83.995
1286.2000, -85.525
1286.3000,-100.929
1286.4000, -96.071
1286.5000, -84.590
1286.6000, -84.629
1286.7000, -85.505
1286.8000,-210.000
1286.9000, -89.987
1287.0000, -85.204
1287.1000, -81.607
1287.2000,-210.000
1287.3000, -85.135
1287.4000, -91.229
1287.5000, -82.389
1287.6000,-210.000
1287.7000, -92.047
1287.8000, -87.544
1287.9000, -91.191
1288.0000, -85.346
1288.1000, -86.706
1288.2000, -87.555
1288.3000, -88.856
1288.4000, -88.364
1288.5000, -82.922
1288.6000, -84.882
1288.7000, -83.306
1288.8000,-210.000
1288.9000, -90.173
1289.0000, -87.687
1289.1000, -84.492
1289.2000, -85.906
1289.3000, -90.352
1289.4000, -88.345
1289.5000, -84.062
1289.6000,-210.000
1289.7000, -83.211
1289.8000, -83.298
1289.9000, -86.859
1290.0000,-210.000
1290.1000, -83.583
1290.2000,-210.000
1290.3000, -85.669
1290.4000, -87.558
1290.5000, -97.591
1290.6000, -94.487
1290.7000, -87.272
1290.8000, -90.517
1290.9000, -84.291
1291.0000, -83.229
1291.1000, -89.024
1291.2000, -85.787
1291.3000, -82.446
1291.4000, -89.496
1291.5000, -86.964
1291.6000, -85.234
1291.7000, -86.507
1291.8000,-210.000
1291.9000, -83.495
1292.0000,-210.000
1292.1000, -86.760
1292.2000, -82.371
1292.3000, -91.730
1292.4000, -82.959
1292.5000, -85.554
1292.6000, -87.788
1292.7000, -84.591
1292.8000, -86.630
1292.9000, -91.268
1293.0000, -83.687
1293.1000, -84.295
1293.2000, -83.481
1293.3000,-210.000
1293.4000, -84.040
1293.5000, -86.060
1293.6000, -88.742
1293.7000, -97.497
1293.8000, -84.807
1293.9000, -84.345
1294.0000, -85.044
1294.1000, -85.653
1294.2000, -88.646
1294.3000, -83.500
1294.4000, -86.941
1294.5000, -83.843
1294.6000, -93.148
1294.7000, -82.984
1294.8000, -86.222
1294.9000, -86.927
1295.0000, -87.099
1295.1000, -84.873
1295.2000, -85.049
1295.3000, -88.702
1295.4000, -88.002
1295.5000,-100.508
1295.6000, -89.613
1295.7000, -83.164
1295.8000, -86.404
1295.9000, -90.291
1296.0000, -93.721
1296.1000, -86.358
1296.2000, -82.530
1296.3000, -90.062
1296.4000, -91.073
1296.5000, -90.853
1296.6000, -85.261
1296.7000, -87.495
1296.8000, -83.463
1296.9000, -88.422
1297.0000, -87.149
1297.1000, -88.794
1297.2000, -82.986
1297.3000, -88.220
1297.4000, -87.999
1297.5000, -90.793
1297.6000, -84.948
1297.7000, -86.633
1297.8000, -81.651
1297.9000,-210.000
1298.0000, -83.832
1298.1000, -84.389
1298.2000, -83.830
1298.3000, -91.184
1298.4000, -89.568
1298.5000, -86.222
1298.6000, -84.699
1298.7000, -86.046
1298.8000, -85.207
1298.9000,-210.000
1299.0000, -86.494
1299.1000, -87.194
1299.2000, -84.132
1299.3000, -82.791
1299.4000,-210.000
1299.5000, -84.904
1299.6000, -82.771
1299.7000, -87.805
1299.8000,-210.000
1299.9000, -83.549
1300.0000, -87.334
1300.1000, -83.208
1300.2000, -85.842
1300.3000,-210.000
1300.4000, -81.276
1300.5000,-210.000
1300.6000, -82.690
1300.7000, -81.943
1300.8000,-210.000
1300.9000, -83.279
1301.0000, -82.102
1301.1000,-210.000
1301.2000,-210.000
1301.3000, -86.434
1301.4000, -88.829
1301.5000, -83.251
1301.6000, -98.151
1301.7000, -86.507
1301.8000, -86.188
1301.9000, -89.415
1302.0000, -86.889
1302.1000, -84.024
1302.2000, -82.527
1302.3000, -89.040
1302.4000, -82.520
1302.5000, -88.292
1302.6000,-210.000
1302.7000, -92.440
1302.8000, -86.024
1302.9000, -84.040
1303.0000, -87.447
1303.1000, -85.437
1303.2000, -88.118
1303.3000, -91.691
1303.4000, -86.968
1303.5000, -86.304
1303.6000, -86.326
1303.7000, -87.640
1303.8000,-210.000
1303.9000, -84.719
1304.0000, -86.091
1304.1000, -85.928
1304.2000,-210.000
1304.3000, -83.073
1304.4000, -87.261
1304.5000, -87.034
1304.6000,-210.000
1304.7000, -87.562
1304.8000, -82.943
1304.9000,-210.000
1305.0000, -87.799
1305.1000, -83.129
1305.2000,-104.173
1305.3000, -86.401
1305.4000, -84.189
1305.5000, -84.145
1305.6000,-210.000
1305.7000, -82.684
1305.8000, -90.888
1305.9000, -81.796
1306.0000,-101.287
1306.1000, -81.488
1306.2000,-210.000
1306.3000, -83.370
1306.4000,-210.000
1306.5000, -88.634
1306.6000, -83.174
1306.7000, -91.125
1306.8000, -89.590
1306.9000, -84.898
1307.0000, -88.102
1307.1000, -86.033
1307.2000,-210.000
1307.3000, -87.925
1307.4000, -87.600
1307.5000, -85.569
1307.6000,-210.000
1307.7000,-210.000
1307.8000, -88.854
1307.9000, -85.801
1308.0000, -84.395
1308.1000, -85.414
1308.2000, -81.994
1308.3000, -92.568
1308.4000, -99.397
1308.5000, -84.778
1308.6000, -84.657
1308.7000,-100.245
1308.8000, -89.172
1308.9000, -91.518
1309.0000, -80.909
1309.1000,-210.000
1309.2000, -88.238
1309.3000, -85.868
1309.4000, -88.808
1309.5000, -84.433
1309.6000, -87.613
1309.7000, -88.845
1309.8000, -89.767
1309.9000, -85.943
1310.0000, -83.326
1310.1000, -83.171
1310.2000, -84.935
1310.3000,-210.000
1310.4000, -89.282
1310.5000, -84.829
1310.6000, -84.071
1310.7000,-210.000
1310.8000, -94.241
1310.9000, -84.902
1311.0000, -84.810
1311.1000,-210.000
1311.2000, -84.098
1311.3000, -82.806
1311.4000, -86.042
1311.5000, -94.038
1311.6000, -83.311
1311.7000, -91.581
1311.8000, -84.467
1311.9000, -86.200
1312.0000, -84.336
1312.1000, -87.041
1312.2000, -83.635
1312.3000, -85.061
1312.4000, -83.123
1312.5000,-210.000
1312.6000, -82.601
1312.7000, -83.583
1312.8000, -85.701
1312.9000, -86.205
1313.0000, -84.975
1313.1000, -91.464
1313.2000,-210.000
1313.3000, -84.913
1313.4000, -84.495
1313.5000, -87.101
1313.6000, -85.766
1313.7000,-100.992
1313.8000, -84.672
1313.9000,-210.000
1314.0000, -83.296
1314.1000, -85.090
1314.2000, -82.910
1314.3000, -86.314
1314.4000, -98.861
1314.5000, -90.471
1314.6000, -93.591
1314.7000, -83.868
1314.8000, -84.786
1314.9000, -85.826
1315.0000, -84.534
1315.1000, -86.584
1315.2000, -86.579
1315.3000, -83.366
1315.4000, -78.810
1315.5000,-210.000
1315.6000, -86.570
1315.7000,-210.000
1315.8000, -83.179
1315.9000, -83.895
1316.0000, -86.848
1316.1000, -88.696
1316.2000,-210.000
1316.3000, -95.932
1316.4000, -92.608
1316.5000, -83.209
1316.6000, -91.180
1316.7000,-210.000
1316.8000, -89.896
1316.9000, -83.659
1317.0000, -82.639
1317.1000,-106.246
1317.2000, -83.962
1317.3000, -86.127
1317.4000, -89.733
1317.5000, -84.335
1317.6000,-210.000
1317.7000, -82.695
1317.8000, -89.673
1317.9000, -87.610
1318.0000, -86.208
1318.1000, -83.619
1318.2000, -85.084
1318.3000, -87.641
1318.4000, -83.524
1318.5000, -88.538
1318.6000, -82.350
1318.7000, -83.726
1318.8000, -81.906
1318.9000, -81.687
1319.0000, -81.494
1319.1000, -80.894
1319.2000, -83.580
1319.3000, -81.001
1319.4000, -82.498
1319.5000, -79.930
1319.6000, -80.694
1319.7000, -81.492
1319.8000, -81.779
1319.9000, -85.994
1320.0000, -83.195
1320.1000, -85.117
1320.2000, -85.666
1320.3000, -81.641
1320.4000, -82.130
1320.5000, -83.072
1320.6000, -82.056
1320.7000, -84.332
1320.8000, -82.756
1320.9000, -82.956
1321.0000, -87.257
1321.1000, -83.250
1321.2000, -86.607
1321.3000, -85.254
1321.4000, -86.042
1321.5000, -85.516
1321.6000, -84.633
1321.7000, -85.085
1321.8000, -86.059
1321.9000, -87.723
1322.0000, -82.529
1322.1000, -90.336
1322.2000, -88.111
1322.3000, -83.105
1322.4000, -85.513
1322.5000, -87.123
1322.6000, -85.103
1322.7000, -91.312
1322.8000, -86.383
1322.9000, -81.487
1323.0000,-210.000
1323.1000, -93.328
1323.2000,-210.000
1323.3000, -80.921
1323.4000, -81.342
1323.5000,-210.000
1323.6000,-210.000
1323.7000, -82.867
1323.8000,-210.000
1323.9000, -83.444
1324.0000, -89.380
1324.1000, -87.287
1324.2000, -82.875
1324.3000,-210.000
1324.4000, -86.290
1324.5000, -90.265
1324.6000, -82.001
1324.7000, -86.657
1324.8000, -86.290
1324.9000, -88.660
1325.0000, -89.076
1325.1000, -86.583
1325.2000, -84.607
1325.3000, -83.271
1325.4000, -87.432
1325.5000,-210.000
1325.6000, -84.958
1325.7000, -89.207
1325.8000, -86.051
1325.9000, -87.998
1326.0000, -85.008
1326.1000, -91.489
1326.2000, -92.986
1326.3000, -91.584
1326.4000, -93.533
1326.5000, -86.734
1326.6000, -84.925
1326.7000, -84.460
1326.8000, -84.631
1326.9000, -89.265
1327.0000, -81.905
1327.1000, -88.979
1327.2000, -83.765
1327.3000, -87.709
1327.4000, -83.815
1327.5000,-210.000
1327.6000, -85.108
1327.7000, -84.104
1327.8000,-210.000
1327.9000,-210.000
1328.0000, -81.467
1328.1000,-210.000
1328.2000, -83.677
1328.3000, -85.244
1328.4000,-210.000
1328.5000, -84.090
1328.6000, -83.010
1328.7000, -82.915
1328.8000,-210.000
1328.9000, -88.310
1329.0000, -85.975
1329.1000,-101.018
1329.2000, -95.294
1329.3000, -92.696
1329.4000, -90.661
1329.5000, -81.858
1329.6000, -83.904
1329.7000, -86.941
1329.8000, -84.279
1329.9000, -86.775
1330.0000,-210.000
1330.1000, -94.895
1330.2000, -85.225
1330.3000, -85.892
1330.4000, -82.345
1330.5000, -91.739
1330.6000, -87.500
1330.7000, -85.584
1330.8000, -82.972
1330.9000, -91.300
1331.0000, -94.295
1331.1000, -84.829
1331.2000, -85.821
1331.3000, -96.579
1331.4000, -86.220
1331.5000, -86.920
1331.6000, -83.312
1331.7000, -86.526
1331.8000, -84.886
1331.9000, -85.829
1332.0000, -90.367
1332.1000, -88.350
1332.2000, -83.672
1332.3000, -86.668
1332.4000, -92.129
1332.5000,-210.000
1332.6000, -83.042
1332.7000, -85.613
1332.8000,-210.000
1332.9000, -85.712
1333.0000, -86.562
1333.1000, -84.476
1333.2000, -84.761
1333.3000, -89.452
1333.4000, -84.736
1333.5000, -82.126
1333.6000, -89.424
1333.7000, -88.948
1333.8000, -84.519
1333.9000, -82.913
1334.0000, -84.928
1334.1000, -83.317
1334.2000, -82.681
1334.3000, -84.662
1334.4000, -82.264
1334.5000, -85.194
1334.6000, -79.821
1334.7000, -88.901
1334.8000, -78.993
1334.9000, -91.834
1335.0000, -83.934
1335.1000,-210.000
1335.2000, -84.928
1335.3000, -80.405
1335.4000, -82.097
1335.5000,-210.000
1335.6000, -80.385
1335.7000, -83.368
1335.8000, -89.102
1335.9000, -82.680
1336.0000, -81.642
1336.1000,-210.000
1336.2000, -82.589
1336.3000,-210.000
1336.4000, -82.803
1336.5000, -87.124
1336.6000, -83.696
1336.7000, -89.634
1336.8000, -89.345
1336.9000, -83.806
1337.0000, -86.347
1337.1000, -85.358
1337.2000, -83.223
1337.3000,-210.000
1337.4000, -82.172
1337.5000, -84.833
1337.6000, -85.765
1337.7000, -88.531
1337.8000, -83.231
1337.9000, -80.097
1338.0000, -87.405
1338.1000, -83.295
1338.2000, -84.081
1338.3000, -81.795
1338.4000, -85.598
1338.5000, -81.965
1338.6000, -80.590
1338.7000, -80.242
1338.8000, -81.440
1338.9000, -82.157
1339.0000, -81.116
1339.1000, -81.161
1339.2000, -80.961
1339.3000, -81.872
1339.4000, -85.814
1339.5000, -82.178
1339.6000, -83.714
1339.7000, -83.124
1339.8000, -82.679
1339.9000, -83.826
1340.0000, -82.928
1340.1000, -86.128
1340.2000, -82.914
1340.3000, -84.494
1340.4000, -86.954
1340.5000, -84.976
1340.6000, -81.455
1340.7000, -84.012
1340.8000, -91.369
1340.9000, -84.334
1341.0000, -83.842
1341.1000, -88.809
1341.2000, -84.155
1341.3000, -85.160
1341.4000, -82.812
1341.5000, -83.492
1341.6000, -81.518
1341.7000, -82.669
1341.8000, -81.247
1341.9000, -86.123
1342.0000, -85.519
1342.1000, -81.045
1342.2000, -85.390
1342.3000, -83.669
1342.4000, -92.816
1342.5000, -82.452
1342.6000, -82.680
1342.7000, -86.441
1342.8000, -87.643
1342.9000, -80.261
1343.0000, -89.826
1343.1000, -91.115
1343.2000, -83.588
1343.3000, -83.652
1343.4000,-210.000
1343.5000, -87.086
1343.6000, -84.288
1343.7000, -81.874
1343.8000,-210.000
1343.9000, -80.268
1344.0000, -83.714
1344.1000,-210.000
1344.2000, -83.285
1344.3000, -89.032
1344.4000,-210.000
1344.5000, -79.803
1344.6000,-210.000
1344.7000, -87.641
1344.8000, -78.994
1344.9000,-210.000
1345.0000, -82.090
1345.1000, -83.892
1345.2000,-210.000
1345.3000, -85.409
1345.4000, -94.060
1345.5000, -83.517
1345.6000,-210.000
1345.7000, -80.278
1345.8000,-210.000
1345.9000, -82.191
1346.0000,-210.000
1346.1000, -81.945
1346.2000, -84.182
1346.3000, -82.838
1346.4000, -96.113
1346.5000,-210.000
1346.6000, -87.333
1346.7000, -89.139
1346.8000, -82.444
1346.9000, -93.195
1347.0000,-210.000
1347.1000, -86.025
1347.2000,-210.000
1347.3000, -83.263
1347.4000, -84.470
1347.5000,-210.000
1347.6000, -87.933
1347.7000, -83.327
1347.8000, -84.311
1347.9000, -85.215
1348.0000, -83.282
1348.1000, -84.111
1348.2000,-210.000
1348.3000, -84.024
1348.4000,-210.000
1348.5000, -81.749
1348.6000,-210.000
1348.7000, -87.542
1348.8000,-210.000
1348.9000,-210.000
1349.0000, -87.021
1349.1000, -85.798
1349.2000,-210.000
1349.3000, -88.944
1349.4000, -83.286
1349.5000, -86.353
1349.6000, -83.192
1349.7000, -93.948
1349.8000, -84.472
1349.9000, -86.004
1350.0000,-210.000
1350.1000, -83.293
1350.2000, -92.494
1350.3000, -86.424
1350.4000, -84.700
1350.5000, -86.388
1350.6000, -87.977
1350.7000, -91.100
1350.8000, -84.146
1350.9000, -85.287
1351.0000, -85.961
1351.1000, -84.610
1351.2000, -92.173
1351.3000, -88.780
1351.4000, -84.612
1351.5000, -86.858
1351.6000, -84.605
1351.7000, -90.936
1351.8000, -83.483
1351.9000, -86.797
1352.0000, -85.902
1352.1000, -87.008
1352.2000,-210.000
1352.3000, -79.852
1352.4000, -85.410
1352.5000, -92.818
1352.6000, -84.363
1352.7000, -86.023
1352.8000, -82.773
1352.9000, -89.292
1353.0000, -83.058
1353.1000, -96.410
1353.2000, -86.562
1353.3000, -88.102
1353.4000, -85.017
1353.5000, -90.324
1353.6000, -86.158
1353.7000, -82.474
1353.8000, -84.487
1353.9000, -87.273
1354.0000, -87.218
1354.1000, -88.587
1354.2000, -83.345
1354.3000, -84.597
1354.4000, -84.577
1354.5000,-210.000
1354.6000, -84.684
1354.7000, -85.182
1354.8000, -84.293
1354.9000, -84.022
1355.0000,-210.000
1355.1000, -86.593
1355.2000, -85.102
1355.3000, -88.995
1355.4000, -87.335
1355.5000, -83.833
1355.6000, -92.496
1355.7000, -83.123
1355.8000, -90.051
1355.9000, -82.695
1356.0000,-102.761
1356.1000, -81.849
1356.2000, -86.195
1356.3000, -84.716
1356.4000, -84.757
1356.5000, -83.886
1356.6000, -82.369
1356.7000, -84.813
1356.8000, -84.262
1356.9000, -84.529
1357.0000, -82.343
1357.1000, -83.996
1357.2000, -83.375
1357.3000, -81.372
1357.4000, -81.805
1357.5000, -82.846
1357.6000, -86.932
1357.7000, -83.056
1357.8000, -82.017
1357.9000, -87.490
1358.0000, -81.366
1358.1000,-210.000
1358.2000, -83.104
1358.3000, -82.153
1358.4000, -84.649
1358.5000, -80.416
1358.6000, -84.471
1358.7000, -82.119
1358.8000,-210.000
1358.9000, -86.580
1359.0000, -85.153
1359.1000, -89.458
1359.2000, -87.834
1359.3000, -81.197
1359.4000,-210.000
1359.5000, -93.070
1359.6000, -84.373
1359.7000, -85.087
1359.8000, -90.725
1359.9000, -82.862
1360.0000, -88.200
1360.1000, -86.117
1360.2000, -83.981
1360.3000, -88.730
1360.4000, -84.077
1360.5000, -85.077
1360.6000,-210.000
1360.7000, -84.052
1360.8000, -84.243
1360.9000,-210.000
1361.0000, -84.254
1361.1000,-210.000
1361.2000, -87.889
1361.3000,-109.548
1361.4000, -81.679
1361.5000, -84.157
1361.6000, -86.505
1361.7000, -80.344
1361.8000,-210.000
1361.9000, -85.817
1362.0000, -84.948
1362.1000, -88.927
1362.2000, -90.589
1362.3000, -98.077
1362.4000, -83.646
1362.5000, -84.809
1362.6000, -89.291
1362.7000,-210.000
1362.8000, -84.317
1362.9000, -87.914
1363.0000,-210.000
1363.1000, -87.283
1363.2000, -96.362
1363.3000, -88.309
1363.4000, -82.941
1363.5000, -79.841
1363.6000,-210.000
1363.7000, -85.292
1363.8000,-210.000
1363.9000, -81.441
1364.0000, -84.762
1364.1000, -82.982
1364.2000,-210.000
1364.3000, -95.749
1364.4000,-210.000
1364.5000, -83.563
1364.6000, -86.817
1364.7000, -83.957
1364.8000,-210.000
1364.9000, -85.226
1365.0000, -88.685
1365.1000, -83.301
1365.2000, -85.121
1365.3000, -84.800
1365.4000, -90.917
1365.5000, -82.295
1365.6000, -87.007
1365.7000,-210.000
1365.8000, -84.236
1365.9000,-210.000
1366.0000, -82.309
1366.1000, -83.225
1366.2000, -87.811
1366.3000, -82.911
1366.4000, -81.764
1366.5000,-210.000
1366.6000, -85.934
1366.7000, -86.369
1366.8000, -90.653
1366.9000, -86.176
1367.0000, -87.013
1367.1000, -88.888
1367.2000, -82.657
1367.3000, -86.843
1367.4000,-104.299
1367.5000, -85.189
1367.6000, -81.479
1367.7000,-210.000
1367.8000,-210.000
1367.9000, -85.658
1368.0000,-210.000
1368.1000, -85.070
1368.2000, -86.516
1368.3000,-210.000
1368.4000,-210.000
1368.5000, -89.199
1368.6000, -85.311
1368.7000, -84.467
1368.8000, -88.882
1368.9000, -85.531
1369.0000, -84.974
1369.1000, -89.289
1369.2000, -88.976
1369.3000, -85.738
1369.4000, -87.174
1369.5000, -90.850
1369.6000, -86.961
1369.7000, -85.173
1369.8000, -91.039
1369.9000, -84.290
1370.0000,-210.000
1370.1000, -83.125
1370.2000, -84.329
1370.3000, -83.924
1370.4000,-100.838
1370.5000, -86.888
1370.6000, -86.413
1370.7000, -85.383
1370.8000, -85.975
1370.9000, -85.636
1371.0000, -82.681
1371.1000, -88.695
1371.2000, -86.309
1371.3000, -94.132
1371.4000, -83.546
1371.5000, -83.981
1371.6000, -86.973
1371.7000, -83.712
1371.8000, -81.248
1371.9000,-210.000
1372.0000, -87.311
1372.1000, -84.616
1372.2000, -87.553
1372.3000, -84.550
1372.4000,-210.000
1372.5000, -85.759
1372.6000, -83.421
1372.7000, -85.355
1372.8000, -86.662
1372.9000, -85.534
1373.0000, -84.887
1373.1000,-210.000
1373.2000, -85.879
1373.3000, -91.425
1373.4000, -84.867
1373.5000, -85.012
1373.6000, -85.949
1373.7000,-210.000
1373.8000, -83.664
1373.9000, -86.597
1374.0000, -85.919
1374.1000, -89.524
1374.2000, -99.177
1374.3000, -82.725
1374.4000, -90.916
1374.5000, -84.909
1374.6000, -96.486
1374.7000, -84.330
1374.8000, -88.651
1374.9000, -96.476
1375.0000, -85.983
1375.1000, -85.513
1375.2000, -85.760
1375.3000, -82.500
1375.4000,-210.000
1375.5000, -85.851
1375.6000, -85.420
1375.7000, -82.792
1375.8000,-210.000
1375.9000, -84.708
1376.0000, -84.203
1376.1000, -93.531
1376.2000, -86.663
1376.3000, -83.244
1376.4000, -81.338
1376.5000,-210.000
1376.6000, -88.798
1376.7000, -89.969
1376.8000, -83.580
1376.9000, -86.189
1377.0000, -86.694
1377.1000,-210.000
1377.2000, -83.499
1377.3000, -86.033
1377.4000,-210.000
1377.5000, -82.287
1377.6000, -85.146
1377.7000,-210.000
1377.8000, -84.419
1377.9000, -89.293
1378.0000, -84.665
1378.1000, -85.450
1378.2000, -83.538
1378.3000, -83.610
1378.4000, -90.758
1378.5000,-210.000
1378.6000, -86.684
1378.7000, -82.730
1378.8000, -86.311
1378.9000, -90.498
1379.0000,-210.000
1379.1000, -82.902
1379.2000, -89.954
1379.3000, -84.849
1379.4000, -86.665
1379.5000, -88.489
1379.6000, -84.275
1379.7000, -85.701
1379.8000, -83.200
1379.9000, -93.315
1380.0000,-210.000
1380.1000, -84.804
1380.2000,-210.000
1380.3000, -88.221
1380.4000, -84.603
1380.5000, -88.730
1380.6000, -86.269
1380.7000, -82.162
1380.8000, -84.331
1380.9000, -84.147
1381.0000,-210.000
1381.1000, -83.192
1381.2000,-210.000
1381.3000, -85.468
1381.4000, -86.503
1381.5000, -88.251
1381.6000, -83.949
1381.7000,-210.000
1381.8000, -84.902
1381.9000, -86.280
1382.0000,-210.000
1382.1000, -86.342
1382.2000, -82.164
1382.3000,-210.000
1382.4000, -82.039
1382.5000, -97.661
1382.6000, -87.903
1382.7000, -90.587
1382.8000, -85.084
1382.9000, -83.088
1383.0000, -82.656
1383.1000,-210.000
1383.2000, -84.673
1383.3000,-210.000
1383.4000, -86.575
1383.5000, -84.427
1383.6000, -83.510
1383.7000, -84.210
1383.8000, -86.139
1383.9000, -87.646
1384.0000, -86.440
1384.1000, -84.778
1384.2000, -92.868
1384.3000, -86.630
1384.4000, -86.461
1384.5000, -82.837
1384.6000,-210.000
1384.7000, -87.079
1384.8000, -85.565
1384.9000, -92.208
1385.0000, -85.181
1385.1000, -85.706
1385.2000, -86.182
1385.3000, -88.748
1385.4000, -84.284
1385.5000, -83.448
1385.6000, -89.118
1385.7000, -86.349
1385.8000, -84.475
1385.9000, -86.719
1386.0000, -83.335
1386.1000, -86.950
1386.2000, -89.196
1386.3000, -87.845
1386.4000, -83.175
1386.5000, -90.023
1386.6000, -87.743
1386.7000,-210.000
1386.8000, -86.947
1386.9000, -84.422
1387.0000, -86.957
1387.1000, -85.463
1387.2000, -80.850
1387.3000, -91.786
1387.4000, -86.658
1387.5000, -81.514
1387.6000, -85.826
1387.7000,-210.000
1387.8000, -83.167
1387.9000, -86.556
1388.0000, -97.484
1388.1000, -83.619
1388.2000, -83.520
1388.3000,-210.000
1388.4000, -86.875
1388.5000, -83.065
1388.6000, -87.879
1388.7000, -89.417
1388.8000, -88.668
1388.9000, -84.505
1389.0000, -88.870
1389.1000, -84.987
1389.2000, -87.066
1389.3000, -84.529
1389.4000, -88.800
1389.5000, -81.467
1389.6000, -88.505
1389.7000,-210.000
1389.8000, -85.855
1389.9000, -84.773
1390.0000,-210.000
1390.1000, -91.028
1390.2000, -87.022
1390.3000, -87.656
1390.4000, -81.781
1390.5000, -86.470
1390.6000, -88.002
1390.7000, -93.857
1390.8000, -83.552
1390.9000,-210.000
1391.0000, -86.930
1391.1000, -92.339
1391.2000, -83.805
1391.3000, -85.759
1391.4000,-210.000
1391.5000, -84.803
1391.6000, -90.895
1391.7000, -87.375
1391.8000, -83.392
1391.9000, -88.700
1392.0000, -94.656
1392.1000, -89.235
1392.2000, -93.931
1392.3000, -86.541
1392.4000, -84.675
1392.5000, -85.933
1392.6000,-210.000
1392.7000, -82.719
1392.8000, -85.050
1392.9000, -84.019
1393.0000, -82.931
1393.1000, -83.538
1393.2000, -86.955
1393.3000, -89.563
1393.4000, -85.524
1393.5000, -86.306
1393.6000, -89.411
1393.7000, -83.807
1393.8000, -86.494
1393.9000,-210.000
1394.0000, -83.916
1394.1000, -91.445
1394.2000,-210.000
1394.3000, -82.532
1394.4000, -88.006
1394.5000, -81.734
1394.6000, -87.313
1394.7000, -93.942
1394.8000, -88.124
1394.9000,-210.000
1395.0000, -81.243
1395.1000, -85.354
1395.2000, -87.616
1395.3000, -86.185
1395.4000,-210.000
1395.5000, -84.714
1395.6000, -87.055
1395.7000, -86.684
1395.8000, -85.032
1395.9000, -86.217
1396.0000, -87.314
1396.1000, -85.313
1396.2000, -85.287
1396.3000, -83.909
1396.4000, -83.718
1396.5000, -89.463
1396.6000, -92.903
1396.7000, -83.427
1396.8000, -88.635
1396.9000,-210.000
1397.0000, -81.228
1397.1000, -86.809
1397.2000, -87.020
1397.3000, -85.911
1397.4000, -83.456
1397.5000, -84.465
1397.6000,-210.000
1397.7000, -88.784
1397.8000, -86.151
1397.9000,-210.000
1398.0000, -82.140
1398.1000, -89.221
1398.2000,-210.000
1398.3000, -81.597
1398.4000,-210.000
1398.5000, -82.883
1398.6000, -91.042
1398.7000, -90.901
1398.8000, -88.871
1398.9000, -85.927
1399.0000, -83.464
1399.1000,-210.000
1399.2000, -87.298
1399.3000, -89.407
1399.4000, -85.237
1399.5000, -83.835
1399.6000, -96.495
1399.7000, -86.820
1399.8000, -86.893
1399.9000, -86.410
1400.0000, -84.674
1400.1000, -92.840
1400.2000, -85.510
1400.3000, -85.075
1400.4000, -84.817
1400.5000, -84.858
1400.6000, -89.353
1400.7000,-210.000
1400.8000, -84.631
1400.9000, -85.042
1401.0000, -86.021
1401.1000,-210.000
1401.2000, -84.925
1401.3000, -90.460
1401.4000, -86.444
1401.5000, -85.292
1401.6000, -85.250
1401.7000, -82.371
1401.8000, -86.859
1401.9000, -87.357
1402.0000, -83.865
1402.1000,-210.000
1402.2000, -86.389
1402.3000, -84.234
1402.4000, -83.099
1402.5000, -84.145
1402.6000,-210.000
1402.7000, -86.214
1402.8000, -82.702
1402.9000, -85.545
1403.0000,-210.000
1403.1000,-210.000
1403.2000, -84.477
1403.3000, -83.891
1403.4000, -82.861
1403.5000,-210.000
1403.6000, -96.170
1403.7000, -91.769
1403.8000, -83.458
1403.9000, -88.164
1404.0000, -89.867
1404.1000, -87.449
1404.2000, -85.959
1404.3000, -85.406
1404.4000, -85.902
1404.5000, -84.041
1404.6000, -85.385
1404.7000, -86.756
1404.8000, -85.815
1404.9000, -85.048
1405.0000, -85.878
1405.1000, -83.247
1405.2000, -83.491
1405.3000,-210.000
1405.4000, -83.104
1405.5000, -85.338
1405.6000, -87.835
1405.7000, -83.820
1405.8000, -85.745
1405.9000, -82.675
1406.0000, -84.830
1406.1000,-210.000
1406.2000,-210.000
1406.3000, -79.987
1406.4000,-210.000
1406.5000, -84.530
1406.6000, -92.793
1406.7000, -84.585
1406.8000, -84.533
1406.9000,-210.000
1407.0000, -85.270
1407.1000, -88.578
1407.2000, -83.442
1407.3000, -87.356
1407.4000, -82.514
1407.5000, -83.258
1407.6000, -82.633
1407.7000,-210.000
1407.8000, -85.264
1407.9000, -81.629
1408.0000, -93.215
1408.1000, -92.751
1408.2000, -87.755
1408.3000, -88.378
1408.4000, -80.816
1408.5000, -97.609
1408.6000, -82.318
1408.7000, -85.388
1408.8000,-210.000
1408.9000, -83.255
1409.0000, -83.887
1409.1000, -87.004
1409.2000, -82.162
1409.3000, -83.462
1409.4000,-210.000
1409.5000, -87.624
1409.6000, -84.864
1409.7000, -83.329
1409.8000,-210.000
1409.9000,-210.000
1410.0000, -79.450
1410.1000, -82.383
1410.2000,-210.000
1410.3000, -87.581
1410.4000, -86.049
1410.5000, -82.879
1410.6000, -95.566
1410.7000, -85.580
1410.8000, -85.869
1410.9000, -84.547
1411.0000, -86.074
1411.1000, -87.822
1411.2000, -83.809
1411.3000, -88.581
1411.4000, -85.225
1411.5000, -86.370
1411.6000, -89.156
1411.7000, -80.185
1411.8000,-210.000
1411.9000, -84.109
1412.0000,-210.000
1412.1000, -85.867
1412.2000, -79.763
1412.3000,-210.000
1412.4000,-210.000
1412.5000, -80.863
1412.6000, -84.081
1412.7000, -81.983
1412.8000,-210.000
1412.9000, -83.005
1413.0000, -83.682
1413.1000, -84.331
1413.2000, -85.072
1413.3000, -83.963
1413.4000, -83.650
1413.5000, -83.135
1413.6000, -84.022
1413.7000, -82.520
1413.8000, -81.226
1413.9000, -93.730
1414.0000, -84.024
1414.1000, -83.521
1414.2000, -83.643
1414.3000, -83.935
1414.4000,-210.000
1414.5000, -82.310
1414.6000, -83.720
1414.7000,-210.000
1414.8000, -84.218
1414.9000, -90.427
1415.0000, -84.170
1415.1000,-210.000
1415.2000, -84.181
1415.3000, -84.936
1415.4000, -87.281
1415.5000, -83.433
1415.6000, -88.554
1415.7000, -90.390
1415.8000, -80.861
1415.9000, -86.564
1416.0000, -84.794
1416.1000, -83.612
1416.2000,-210.000
1416.3000, -85.137
1416.4000, -91.985
1416.5000, -87.206
1416.6000, -84.729
1416.7000, -86.373
1416.8000, -84.951
1416.9000, -92.816
1417.0000, -84.333
1417.1000, -91.323
1417.2000, -88.936
1417.3000, -83.936
1417.4000, -86.177
1417.5000, -89.363
1417.6000, -84.757
1417.7000, -88.140
1417.8000, -83.384
1417.9000, -86.886
1418.0000, -82.189
1418.1000, -83.819
1418.2000, -84.166
1418.3000,-210.000
1418.4000, -91.299
1418.5000,-210.000
1418.6000, -80.557
1418.7000, -90.242
1418.8000, -82.443
1418.9000, -85.171
1419.0000, -81.951
1419.1000, -83.018
1419.2000,-210.000
1419.3000, -88.098
1419.4000, -84.380
1419.5000, -84.937
1419.6000, -82.900
1419.7000,-210.000
1419.8000, -82.889
1419.9000, -84.298
1420.0000, -83.817
1420.1000, -87.532
1420.2000, -85.315
1420.3000, -80.070
1420.4000, -86.010
1420.5000,-210.000
1420.6000, -85.727
1420.7000, -83.727
1420.8000,-210.000
1420.9000, -83.483
1421.0000, -90.697
1421.1000, -84.709
1421.2000, -98.453
1421.3000, -83.348
1421.4000, -81.576
1421.5000, -85.873
1421.6000, -84.180
1421.7000, -89.627
1421.8000, -86.619
1421.9000, -83.583
1422.0000, -87.969
1422.1000,-101.154
1422.2000, -94.173
1422.3000, -80.152
1422.4000, -82.262
1422.5000, -93.620
1422.6000, -85.176
1422.7000,-210.000
1422.8000, -83.616
1422.9000, -84.347
1423.0000, -85.499
1423.1000, -87.132
1423.2000, -85.618
1423.3000, -84.751
1423.4000, -83.804
1423.5000, -86.341
1423.6000, -83.930
1423.7000,-210.000
1423.8000, -82.117
1423.9000,-108.213
1424.0000, -84.784
1424.1000, -83.673
1424.2000, -87.876
1424.3000, -83.957
1424.4000, -83.790
1424.5000, -84.726
1424.6000, -84.366
1424.7000,-210.000
1424.8000, -84.664
1424.9000, -80.167
1425.0000, -88.526
1425.1000, -87.147
1425.2000, -83.282
1425.3000,-210.000
1425.4000, -82.526
1425.5000, -86.115
1425.6000, -84.058
1425.7000, -87.116
1425.8000, -83.309
1425.9000, -84.613
1426.0000, -85.279
1426.1000, -83.885
1426.2000, -88.536
1426.3000, -85.737
1426.4000, -85.037
1426.5000, -84.298
1426.6000, -86.555
1426.7000, -88.733
1426.8000, -88.419
1426.9000, -83.214
1427.0000, -82.793
1427.1000, -93.321
1427.2000,-210.000
1427.3000, -84.595
1427.4000, -83.506
1427.5000, -89.410
1427.6000, -92.922
1427.7000, -82.077
1427.8000, -85.893
1427.9000, -82.107
1428.0000, -88.051
1428.1000, -85.408
1428.2000, -85.316
1428.3000, -86.960
1428.4000, -86.606
1428.5000, -86.250
1428.6000, -84.749
1428.7000, -83.397
1428.8000, -84.045
1428.9000, -84.985
1429.0000, -85.690
1429.1000, -81.992
1429.2000, -82.693
1429.3000, -86.004
1429.4000, -83.514
1429.5000, -84.057
1429.6000, -83.931
1429.7000, -88.137
1429.8000, -83.803
1429.9000, -84.535
1430.0000, -83.726
1430.1000, -87.849
1430.2000, -85.164
1430.3000, -92.454
1430.4000, -94.479
1430.5000, -80.242
1430.6000, -87.066
1430.7000, -85.211
1430.8000, -82.038
1430.9000, -81.788
1431.0000,-210.000
1431.1000, -81.946
1431.2000, -83.673
1431.3000, -83.327
1431.4000, -88.837
1431.5000, -85.288
1431.6000, -82.063
1431.7000,-101.808
1431.8000, -84.487
1431.9000, -82.291
1432.0000, -88.221
1432.1000, -91.799
1432.2000, -84.244
1432.3000, -91.022
1432.4000, -83.561
1432.5000,-210.000
1432.6000, -81.368
1432.7000, -89.753
1432.8000, -86.323
1432.9000, -82.319
1433.0000, -84.595
1433.1000,-210.000
1433.2000, -79.991
1433.3000, -86.723
1433.4000, -84.146
1433.5000,-210.000
1433.6000, -84.616
1433.7000,-210.000
1433.8000, -86.453
1433.9000, -85.932
1434.0000, -81.540
1434.1000, -82.236
1434.2000, -82.350
1434.3000,-210.000
1434.4000, -89.134
1434.5000, -83.376
1434.6000, -89.455
1434.7000, -82.958
1434.8000, -89.353
1434.9000, -83.056
1435.0000, -82.723
1435.1000, -89.291
1435.2000,-210.000
1435.3000, -82.340
1435.4000, -84.431
1435.5000, -83.342
1435.6000, -89.297
1435.7000, -88.974
1435.8000, -82.834
1435.9000, -86.978
1436.0000, -83.270
1436.1000, -85.102
1436.2000, -83.040
1436.3000, -84.006
1436.4000, -83.908
1436.5000, -82.376
1436.6000, -86.998
1436.7000, -84.409
1436.8000, -81.660
1436.9000,-210.000
1437.0000, -84.029
1437.1000, -84.396
1437.2000, -94.713
1437.3000, -85.891
1437.4000, -82.148
1437.5000, -86.341
1437.6000, -83.277
1437.7000,-210.000
1437.8000, -79.469
1437.9000,-210.000
1438.0000, -84.327
1438.1000, -86.071
1438.2000, -87.240
1438.3000, -87.453
1438.4000, -86.844
1438.5000, -84.187
1438.6000, -96.473
1438.7000, -84.143
1438.8000, -85.732
1438.9000, -84.583
1439.0000, -83.151
1439.1000, -85.171
1439.2000, -85.077
1439.3000, -85.513
1439.4000, -82.308
1439.5000, -86.787
1439.6000, -83.502
1439.7000, -84.244
1439.8000, -82.790
1439.9000, -83.477
1440.0000, -83.434
1440.1000, -90.180
1440.2000, -81.726
1440.3000, -85.956
1440.4000, -86.247
1440.5000, -83.420
1440.6000, -81.028
1440.7000, -93.425
1440.8000, -83.493
1440.9000, -82.735
1441.0000, -84.766
1441.1000, -84.772
1441.2000, -86.279
1441.3000, -82.053
1441.4000, -86.647
1441.5000, -93.346
1441.6000, -91.763
1441.7000, -86.318
1441.8000, -84.319
1441.9000, -85.500
1442.0000,-210.000
1442.1000, -83.464
1442.2000, -82.976
1442.3000, -87.948
1442.4000, -83.930
1442.5000, -84.678
1442.6000, -89.931
1442.7000, -83.081
1442.8000, -86.215
1442.9000, -89.240
1443.0000, -83.009
1443.1000, -85.130
1443.2000, -89.726
1443.3000, -82.242
1443.4000, -85.989
1443.5000, -82.226
1443.6000, -86.158
1443.7000, -81.661
1443.8000, -82.898
1443.9000, -83.935
1444.0000, -91.664
1444.1000, -83.615
1444.2000, -85.607
1444.3000, -92.346
1444.4000, -81.613
1444.5000, -84.282
1444.6000, -84.136
1444.7000, -91.553
1444.8000, -90.212
1444.9000, -80.778
1445.0000, -88.273
1445.1000, -84.466
1445.2000, -97.550
1445.3000, -87.045
1445.4000, -85.091
1445.5000, -83.765
1445.6000, -85.393
1445.7000, -87.936
1445.8000, -84.433
1445.9000, -86.513
1446.0000, -82.158
1446.1000, -83.423
1446.2000, -86.501
1446.3000, -83.316
1446.4000, -90.435
1446.5000, -87.131
1446.6000, -85.446
1446.7000, -91.428
1446.8000, -82.750
1446.9000, -89.157
1447.0000, -84.536
1447.1000, -85.087
1447.2000, -85.170
1447.3000, -83.186
1447.4000,-210.000
1447.5000, -85.031
1447.6000, -84.790
1447.7000, -81.476
1447.8000,-210.000
1447.9000, -83.200
1448.0000, -91.492
1448.1000, -83.266
1448.2000, -92.796
1448.3000, -86.163
1448.4000, -91.839
1448.5000, -85.702
1448.6000, -83.564
1448.7000, -83.523
1448.8000, -81.112
1448.9000, -86.092
1449.0000, -88.528
1449.1000,-210.000
1449.2000, -88.830
1449.3000,-210.000
1449.4000, -90.853
1449.5000,-210.000
1449.6000, -83.890
1449.7000,-210.000
1449.8000, -91.562
1449.9000, -86.841
1450.0000, -84.403
1450.1000, -82.541
1450.2000,-210.000
1450.3000, -87.043
1450.4000, -86.014
1450.5000, -85.528
1450.6000, -90.310
1450.7000, -84.068
1450.8000, -88.987
1450.9000, -88.339
1451.0000, -97.674
1451.1000, -88.992
1451.2000, -82.119
1451.3000, -94.296
1451.4000, -84.730
1451.5000, -83.940
1451.6000, -93.183
1451.7000, -84.450
1451.8000, -84.782
1451.9000, -84.223
1452.0000, -86.135
1452.1000, -87.582
1452.2000, -89.647
1452.3000, -84.860
1452.4000, -87.115
1452.5000, -89.010
1452.6000, -83.176
1452.7000,-210.000
1452.8000, -92.670
1452.9000, -90.345
1453.0000, -90.725
1453.1000, -83.589
1453.2000, -83.889
1453.3000, -81.817
1453.4000,-210.000
1453.5000, -81.609
1453.6000,-210.000
1453.7000, -86.433
1453.8000, -84.205
1453.9000, -82.260
1454.0000, -88.087
1454.1000, -86.330
1454.2000,-210.000
1454.3000, -85.210
1454.4000, -81.999
1454.5000, -86.643
1454.6000, -81.834
1454.7000, -87.603
1454.8000, -82.849
1454.9000, -89.115
1455.0000, -85.254
1455.1000, -88.262
1455.2000, -84.074
1455.3000, -85.222
1455.4000, -84.306
1455.5000, -82.827
1455.6000,-210.000
1455.7000, -83.737
1455.8000,-210.000
1455.9000,-210.000
1456.0000, -95.230
1456.1000, -88.106
1456.2000, -84.148
1456.3000, -84.094
1456.4000, -81.963
1456.5000, -89.886
1456.6000, -88.179
1456.7000,-210.000
1456.8000, -85.046
1456.9000, -84.320
1457.0000, -86.895
1457.1000, -86.368
1457.2000, -86.451
1457.3000, -84.149
1457.4000, -84.388
1457.5000, -84.424
1457.6000,-210.000
1457.7000, -85.849
1457.8000, -91.816
1457.9000, -83.755
1458.0000, -83.978
1458.1000, -94.117
1458.2000, -85.079
1458.3000, -85.489
1458.4000, -82.652
1458.5000, -83.749
1458.6000, -85.293
1458.7000,-210.000
1458.8000, -83.344
1458.9000, -84.835
1459.0000, -89.152
1459.1000, -83.442
1459.2000, -86.646
1459.3000, -85.489
1459.4000, -83.791
1459.5000, -88.117
1459.6000, -85.420
1459.7000, -84.298
1459.8000,-210.000
1459.9000, -83.568
1460.0000, -84.356
1460.1000,-210.000
1460.2000, -86.613
1460.3000, -86.371
1460.4000, -86.203
1460.5000, -92.627
1460.6000, -84.806
1460.7000, -88.765
1460.8000, -86.443
1460.9000, -84.096
1461.0000, -86.831
1461.1000, -84.646
1461.2000, -86.829
1461.3000, -86.694
1461.4000, -83.089
1461.5000,-210.000
1461.6000, -89.396
1461.7000, -88.281
1461.8000, -85.422
1461.9000, -83.565
1462.0000, -88.116
1462.1000, -83.364
1462.2000, -84.144
1462.3000, -86.760
1462.4000, -87.199
1462.5000, -88.875
1462.6000, -82.998
1462.7000, -85.052
1462.8000, -86.143
1462.9000,-210.000
1463.0000, -83.602
1463.1000, -83.199
1463.2000, -84.528
1463.3000, -84.413
1463.4000,-210.000
1463.5000, -83.163
1463.6000, -86.903
1463.7000, -81.139
1463.8000, -84.795
1463.9000,-210.000
1464.0000, -84.865
1464.1000, -81.418
1464.2000,-210.000
1464.3000, -83.936
1464.4000, -92.465
1464.5000, -82.582
1464.6000,-210.000
1464.7000, -82.059
1464.8000,-210.000
1464.9000, -79.138
1465.0000,-210.000
1465.1000, -88.899
1465.2000, -85.985
1465.3000, -83.127
1465.4000, -83.690
1465.5000,-210.000
1465.6000, -92.177
1465.7000, -87.647
1465.8000, -82.654
1465.9000, -82.832
1466.0000, -89.436
1466.1000, -86.788
1466.2000, -83.882
1466.3000, -90.602
1466.4000, -83.448
1466.5000,-210.000
1466.6000, -83.352
1466.7000, -82.728
1466.8000,-210.000
1466.9000, -95.698
1467.0000, -84.094
1467.1000, -84.137
1467.2000, -85.013
1467.3000, -82.770
1467.4000, -85.168
1467.5000, -89.848
1467.6000, -84.338
1467.7000, -84.971
1467.8000, -83.384
1467.9000, -89.414
1468.0000, -84.917
1468.1000, -86.392
1468.2000, -83.451
1468.3000, -95.346
1468.4000, -92.408
1468.5000, -87.482
1468.6000, -85.306
1468.7000, -87.725
1468.8000, -87.974
1468.9000, -86.403
1469.0000, -90.061
1469.1000, -85.244
1469.2000, -96.040
1469.3000, -87.055
1469.4000, -85.129
1469.5000, -85.717
1469.6000, -85.333
1469.7000, -88.248
1469.8000, -87.196
1469.9000, -84.759
1470.0000, -83.638
1470.1000, -90.025
1470.2000, -86.170
1470.3000, -84.255
1470.4000, -83.121
1470.5000, -88.163
1470.6000, -91.136
1470.7000, -85.224
1470.8000, -78.936
1470.9000,-210.000
1471.0000, -80.756
1471.1000,-210.000
1471.2000, -82.895
1471.3000, -91.588
1471.4000, -83.458
1471.5000,-210.000
1471.6000, -82.864
1471.7000, -80.968
1471.8000, -86.343
1471.9000, -85.534
1472.0000, -84.246
1472.1000,-210.000
1472.2000, -85.566
1472.3000, -86.996
1472.4000, -85.438
1472.5000, -85.527
1472.6000, -86.253
1472.7000, -85.153
1472.8000, -81.669
1472.9000,-101.165
1473.0000, -84.369
1473.1000, -92.536
1473.2000,-210.000
1473.3000, -85.061
1473.4000, -83.597
1473.5000, -83.669
1473.6000,-210.000
1473.7000,-210.000
1473.8000, -83.402
1473.9000, -83.780
1474.0000, -89.678
1474.1000, -83.583
1474.2000, -83.912
1474.3000, -84.094
1474.4000, -93.265
1474.5000, -84.921
1474.6000, -84.373
1474.7000, -80.686
1474.8000, -88.349
1474.9000,-210.000
1475.0000, -93.892
1475.1000, -85.545
1475.2000, -80.306
1475.3000, -83.804
1475.4000, -85.270
1475.5000, -87.971
1475.6000, -81.939
1475.7000,-210.000
1475.8000, -87.652
1475.9000, -95.619
1476.0000, -84.546
1476.1000, -91.009
1476.2000, -87.151
1476.3000,-210.000
1476.4000,-105.200
1476.5000, -85.302
1476.6000, -83.464
1476.7000,-210.000
1476.8000, -84.962
1476.9000, -85.757
1477.0000, -83.059
1477.1000,-210.000
1477.2000, -86.354
1477.3000,-210.000
1477.4000, -83.065
1477.5000, -81.941
1477.6000, -90.431
1477.7000, -85.883
1477.8000, -85.319
1477.9000, -87.532
1478.0000, -89.438
1478.1000,-210.000
1478.2000, -83.003
1478.3000, -83.285
1478.4000, -94.322
1478.5000, -84.449
1478.6000, -85.050
1478.7000, -83.022
1478.8000, -90.058
1478.9000, -89.252
1479.0000,-210.000
1479.1000, -88.830
1479.2000, -81.988
1479.3000, -89.559
1479.4000, -86.146
1479.5000, -93.100
1479.6000, -87.413
1479.7000, -81.752
1479.8000, -86.537
1479.9000, -88.633
1480.0000, -83.040
1480.1000,-104.402
1480.2000, -85.594
1480.3000, -91.293
1480.4000, -85.520
1480.5000, -84.049
1480.6000, -90.097
1480.7000, -90.188
1480.8000, -84.448
1480.9000, -82.629
1481.0000, -92.503
1481.1000, -84.595
1481.2000, -84.312
1481.3000,-210.000
1481.4000, -83.208
1481.5000, -87.917
1481.6000, -83.892
1481.7000, -84.735
1481.8000, -85.218
1481.9000, -84.907
1482.0000,-100.078
1482.1000, -84.031
1482.2000, -82.896
1482.3000, -84.209
1482.4000, -88.046
1482.5000, -87.296
1482.6000, -83.252
1482.7000, -82.488
1482.8000,-210.000
1482.9000,-210.000
1483.0000, -82.790
1483.1000, -87.324
1483.2000, -82.873
1483.3000,-210.000
1483.4000, -86.637
1483.5000, -82.946
1483.6000, -85.621
1483.7000, -91.781
1483.8000, -84.703
1483.9000, -86.880
1484.0000, -99.494
1484.1000, -88.114
1484.2000, -92.675
1484.3000, -85.311
1484.4000, -85.165
1484.5000, -85.199
1484.6000, -89.115
1484.7000, -83.991
1484.8000, -96.337
1484.9000, -81.864
1485.0000, -86.765
1485.1000,-210.000
1485.2000, -84.263
1485.3000, -82.801
1485.4000, -85.011
1485.5000, -85.121
1485.6000, -96.946
1485.7000, -83.288
1485.8000,-210.000
1485.9000, -81.547
1486.0000,-210.000
1486.1000, -84.930
1486.2000, -84.020
1486.3000, -96.514
1486.4000, -83.642
1486.5000, -92.628
1486.6000, -85.529
1486.7000, -86.385
1486.8000, -85.425
1486.9000, -82.322
1487.0000, -85.052
1487.1000, -84.530
1487.2000, -85.528
1487.3000, -80.785
1487.4000,-210.000
1487.5000, -88.275
1487.6000, -89.436
1487.7000, -82.711
1487.8000, -86.143
1487.9000, -87.464
1488.0000, -83.991
1488.1000, -83.477
1488.2000, -88.520
1488.3000, -83.984
1488.4000, -82.407
1488.5000, -88.949
1488.6000, -85.539
1488.7000, -86.480
1488.8000, -83.659
1488.9000, -86.303
1489.0000, -85.810
1489.1000, -83.793
1489.2000,-101.015
1489.3000, -88.697
1489.4000, -82.843
1489.5000, -85.971
1489.6000,-210.000
1489.7000, -83.902
1489.8000, -83.190
1489.9000, -90.445
1490.0000, -84.100
1490.1000, -83.036
1490.2000, -85.544
1490.3000, -83.110
1490.4000, -88.468
1490.5000, -84.638
1490.6000, -88.366
1490.7000, -87.329
1490.8000, -87.136
1490.9000,-100.452
1491.0000, -85.900
1491.1000, -85.323
1491.2000, -84.102
1491.3000, -81.839
1491.4000, -90.033
1491.5000, -87.976
1491.6000, -88.137
1491.7000, -87.150
1491.8000, -87.066
1491.9000, -86.482
1492.0000, -83.949
1492.1000, -84.010
1492.2000, -84.323
1492.3000, -87.430
1492.4000, -89.248
1492.5000, -83.088
1492.6000, -85.458
1492.7000, -93.682
1492.8000, -86.159
1492.9000, -86.050
1493.0000, -83.253
1493.1000,-210.000
1493.2000, -84.097
1493.3000, -89.404
1493.4000, -86.339
1493.5000, -85.646
1493.6000, -86.345
1493.7000, -85.234
1493.8000, -86.939
1493.9000, -84.816
1494.0000, -86.946
1494.1000, -87.256
1494.2000, -82.670
1494.3000, -92.224
1494.4000, -81.824
1494.5000,-210.000
1494.6000, -84.303
1494.7000, -92.416
1494.8000, -87.145
1494.9000, -85.190
1495.0000, -81.952
1495.1000, -87.092
1495.2000,-210.000
1495.3000, -82.770
1495.4000, -82.793
1495.5000, -85.143
1495.6000, -90.884
1495.7000, -85.323
1495.8000, -85.604
1495.9000, -91.555
1496.0000, -88.290
1496.1000, -86.052
1496.2000, -81.070
1496.3000, -88.188
1496.4000,-210.000
1496.5000, -81.220
1496.6000, -80.209
1496.7000, -84.766
1496.8000,-210.000
1496.9000, -80.600
1497.0000, -82.474
1497.1000,-210.000
1497.2000, -81.108
1497.3000, -83.273
1497.4000,-210.000
1497.5000,-210.000
1497.6000, -82.338
1497.7000, -84.442
1497.8000, -80.678
1497.9000,-210.000
1498.0000, -80.935
1498.1000, -81.832
1498.2000, -82.794
1498.3000, -85.395
1498.4000, -83.874
1498.5000,-210.000
1498.6000, -82.135
1498.7000, -88.283
1498.8000, -93.799
1498.9000,-210.000
1499.0000, -79.112
1499.1000,-210.000
1499.2000, -83.638
1499.3000, -85.129
1499.4000, -80.952
1499.5000,-210.000
1499.6000, -85.723
1499.7000, -85.397
1499.8000, -91.913
1499.9000, -88.182
1500.0000, -83.962
1500.1000, -84.348
1500.2000, -88.631
1500.3000, -83.806
1500.4000,-210.000
1500.5000, -94.423
1500.6000, -81.648
1500.7000, -80.515
1500.8000, -95.304
1500.9000,-210.000
1501.0000, -80.158
1501.1000, -82.239
1501.2000, -84.335
1501.3000,-210.000
1501.4000, -91.929
1501.5000, -88.748
1501.6000,-210.000
1501.7000, -84.201
1501.8000, -78.312
1501.9000,-210.000
1502.0000,-210.000
1502.1000, -78.619
1502.2000, -86.833
1502.3000,-210.000
1502.4000, -79.109
1502.5000, -85.341
1502.6000, -83.842
1502.7000, -83.619
1502.8000, -86.567
1502.9000, -80.803
1503.0000, -82.307
1503.1000, -85.910
1503.2000, -94.856
1503.3000, -84.589
1503.4000,-210.000
1503.5000, -81.734
1503.6000, -82.404
1503.7000, -97.408
1503.8000, -95.474
1503.9000, -85.735
1504.0000, -83.862
1504.1000,-210.000
1504.2000, -84.022
1504.3000, -83.040
1504.4000, -86.884
1504.5000, -84.354
1504.6000, -84.389
1504.7000, -88.477
1504.8000,-210.000
1504.9000, -84.072
1505.0000, -86.547
1505.1000, -87.459
1505.2000, -84.675
1505.3000, -85.669
1505.4000, -84.699
1505.5000, -82.942
1505.6000, -85.685
1505.7000, -84.923
1505.8000,-210.000
1505.9000, -85.776
1506.0000, -84.910
1506.1000, -86.295
1506.2000, -83.332
1506.3000, -89.759
1506.4000, -82.227
1506.5000, -85.308
1506.6000, -82.707
1506.7000, -84.869
1506.8000, -82.394
1506.9000,-210.000
1507.0000, -87.791
1507.1000, -86.191
1507.2000, -84.066
1507.3000, -89.666
1507.4000, -82.607
1507.5000,-210.000
1507.6000, -80.841
1507.7000,-210.000
1507.8000,-210.000
1507.9000, -81.596
1508.0000, -83.743
1508.1000, -82.850
1508.2000,-210.000
1508.3000, -85.526
1508.4000, -87.113
1508.5000, -83.675
1508.6000,-210.000
1508.7000, -79.737
1508.8000, -84.784
1508.9000,-210.000
1509.0000, -82.386
1509.1000, -84.525
1509.2000,-210.000
1509.3000, -82.708
1509.4000, -88.396
1509.5000, -89.113
1509.6000, -83.453
1509.7000, -84.034
1509.8000, -82.003
1509.9000,-210.000
1510.0000, -83.954
1510.1000, -85.119
1510.2000, -82.338
1510.3000, -84.420
1510.4000,-108.201
1510.5000, -84.032
1510.6000, -84.622
1510.7000,-210.000
1510.8000, -84.502
1510.9000, -84.169
1511.0000, -90.013
1511.1000, -88.494
1511.2000, -83.368
1511.3000, -85.087
1511.4000, -87.701
1511.5000, -83.794
1511.6000, -90.560
1511.7000, -89.067
1511.8000, -82.573
1511.9000, -85.252
1512.0000,-210.000
1512.1000, -86.988
1512.2000, -83.746
1512.3000, -85.274
1512.4000, -84.768
1512.5000, -87.316
1512.6000, -85.236
1512.7000, -84.450
1512.8000, -84.272
1512.9000, -85.057
1513.0000, -87.982
1513.1000, -84.992
1513.2000, -86.959
1513.3000, -86.219
1513.4000, -84.129
1513.5000, -83.663
1513.6000,-107.246
1513.7000, -85.161
1513.8000, -86.167
1513.9000, -81.989
1514.0000,-210.000
1514.1000, -85.600
1514.2000, -91.438
1514.3000, -85.568
1514.4000,-210.000
1514.5000, -84.220
1514.6000, -89.948
1514.7000, -89.798
1514.8000, -80.755
1514.9000,-210.000
1515.0000, -84.922
1515.1000, -84.026
1515.2000, -86.574
1515.3000, -82.321
1515.4000, -88.084
1515.5000, -84.804
1515.6000, -83.488
1515.7000, -82.041
1515.8000,-210.000
1515.9000, -86.131
1516.0000,-210.000
1516.1000, -84.685
1516.2000, -83.419
1516.3000, -85.158
1516.4000, -88.662
1516.5000, -86.122
1516.6000, -86.617
1516.7000, -88.139
1516.8000, -82.756
1516.9000, -84.058
1517.0000,-102.993
1517.1000, -81.990
1517.2000, -87.139
1517.3000, -82.826
1517.4000,-210.000
1517.5000,-210.000
1517.6000, -81.728
1517.7000,-104.040
1517.8000, -80.985
1517.9000,-210.000
1518.0000,-210.000
1518.1000, -81.548
1518.2000, -86.153
1518.3000,-210.000
1518.4000, -79.369
1518.5000,-210.000
1518.6000, -89.270
1518.7000,-210.000
1518.8000, -82.122
1518.9000, -84.702
1519.0000, -82.821
1519.1000,-210.000
1519.2000, -85.856
1519.3000, -86.043
1519.4000, -86.019
1519.5000, -82.596
1519.6000,-210.000
1519.7000, -83.520
1519.8000,-210.000
1519.9000, -89.863
1520.0000, -85.326
1520.1000, -86.559
1520.2000, -84.132
1520.3000, -84.424
1520.4000,-210.000
1520.5000, -80.999
1520.6000,-210.000
1520.7000, -85.748
1520.8000, -82.843
1520.9000, -82.591
1521.0000, -95.730
1521.1000, -86.153
1521.2000, -84.728
1521.3000, -86.978
1521.4000, -82.533
1521.5000, -81.366
1521.6000,-210.000
1521.7000, -82.942
1521.8000,-106.119
1521.9000, -82.539
1522.0000, -82.611
1522.1000, -88.613
1522.2000, -86.235
1522.3000, -83.731
1522.4000, -83.432
1522.5000, -81.144
1522.6000,-210.000
1522.7000,-210.000
1522.8000, -80.648
1522.9000,-210.000
1523.0000, -83.107
1523.1000, -79.886
1523.2000, -86.925
1523.3000,-210.000
1523.4000,-210.000
1523.5000, -77.835
1523.6000,-210.000
1523.7000, -79.273
1523.8000,-210.000
1523.9000,-210.000
1524.0000, -78.993
1524.1000, -88.666
1524.2000, -84.598
1524.3000,-210.000
1524.4000,-210.000
1524.5000, -83.455
1524.6000, -81.582
1524.7000,-210.000
1524.8000, -82.149
1524.9000, -83.329
1525.0000, -95.371
1525.1000, -83.164
1525.2000, -84.222
1525.3000,-210.000
1525.4000, -87.959
1525.5000, -83.978
1525.6000, -86.113
1525.7000, -84.706
1525.8000, -85.825
1525.9000, -82.896
1526.0000,-210.000
1526.1000, -83.861
1526.2000, -84.245
1526.3000, -88.678
1526.4000, -88.395
1526.5000, -83.652
1526.6000, -84.617
1526.7000, -84.522
1526.8000, -84.888
1526.9000, -90.817
1527.0000, -87.900
1527.1000, -88.125
1527.2000, -84.452
1527.3000,-210.000
1527.4000, -82.025
1527.5000, -86.522
1527.6000, -85.689
1527.7000,-210.000
1527.8000, -79.284
1527.9000, -84.156
1528.0000, -85.292
1528.1000, -82.727
1528.2000, -86.484
1528.3000, -89.267
1528.4000, -83.060
1528.5000, -84.729
1528.6000, -83.455
1528.7000,-210.000
1528.8000, -83.882
1528.9000, -79.069
1529.0000, -84.712
1529.1000, -90.110
1529.2000, -84.470
1529.3000, -82.221
1529.4000, -87.577
1529.5000, -84.871
1529.6000, -84.825
1529.7000, -83.137
1529.8000, -85.065
1529.9000, -83.678
1530.0000, -82.285
1530.1000, -85.394
1530.2000, -86.917
1530.3000, -84.846
1530.4000, -87.139
1530.5000, -84.938
1530.6000, -87.168
1530.7000, -83.166
1530.8000, -85.104
1530.9000, -86.366
1531.0000, -82.119
1531.1000, -84.145
1531.2000,-210.000
1531.3000, -86.403
1531.4000, -85.797
1531.5000, -85.767
1531.6000, -81.712
1531.7000, -86.869
1531.8000,-210.000
1531.9000, -93.298
1532.0000, -84.417
1532.1000, -86.374
1532.2000, -85.277
1532.3000, -83.442
1532.4000,-210.000
1532.5000, -85.843
1532.6000, -85.746
1532.7000, -94.322
1532.8000, -84.950
1532.9000,-210.000
1533.0000, -85.199
1533.1000, -85.105
1533.2000, -83.087
1533.3000, -86.640
1533.4000, -87.992
1533.5000, -84.472
1533.6000, -82.154
1533.7000, -91.255
1533.8000, -85.772
1533.9000, -88.581
1534.0000, -84.222
1534.1000, -86.397
1534.2000, -93.135
1534.3000, -84.252
1534.4000, -82.213
1534.5000, -85.064
1534.6000, -84.574
1534.7000, -81.717
1534.8000,-210.000
1534.9000, -82.929
1535.0000, -83.751
1535.1000, -89.593
1535.2000, -83.539
1535.3000, -91.369
1535.4000, -84.767
1535.5000, -86.053
1535.6000, -83.660
1535.7000, -86.897
1535.8000, -88.585
1535.9000, -80.909
1536.0000, -87.488
1536.1000,-210.000
1536.2000, -85.096
1536.3000, -81.204
1536.4000, -84.251
1536.5000,-210.000
1536.6000, -84.400
1536.7000, -86.199
1536.8000, -91.216
1536.9000, -81.017
1537.0000,-210.000
1537.1000, -82.027
1537.2000, -86.203
1537.3000, -79.641
1537.4000, -82.233
1537.5000, -89.641
1537.6000, -85.930
1537.7000, -89.780
1537.8000, -84.909
1537.9000,-105.230
1538.0000, -89.807
1538.1000, -82.077
1538.2000, -84.141
1538.3000, -83.635
1538.4000, -81.224
1538.5000, -85.753
1538.6000,-210.000
1538.7000, -91.469
1538.8000, -84.656
1538.9000, -89.319
1539.0000, -85.721
1539.1000, -79.994
1539.2000,-210.000
1539.3000,-210.000
1539.4000, -85.864
1539.5000, -81.708
1539.6000, -91.112
1539.7000, -94.656
1539.8000, -87.914
1539.9000, -86.968
1540.0000, -83.737
1540.1000, -83.487
1540.2000, -84.434
1540.3000, -91.402
1540.4000, -89.294
1540.5000, -84.138
1540.6000, -83.298
1540.7000, -86.981
1540.8000, -85.115
1540.9000, -84.391
1541.0000,-210.000
1541.1000, -90.098
1541.2000, -84.096
1541.3000, -86.891
1541.4000, -87.383
1541.5000, -82.436
1541.6000, -91.013
1541.7000, -84.640
1541.8000, -84.465
1541.9000, -90.234
1542.0000, -83.452
1542.1000, -82.066
1542.2000, -84.624
1542.3000, -86.629
1542.4000, -84.018
1542.5000, -90.996
1542.6000, -84.713
1542.7000, -79.908
1542.8000,-210.000
1542.9000, -84.499
1543.0000, -81.965
1543.1000, -84.141
1543.2000, -86.781
1543.3000, -85.041
1543.4000, -92.525
1543.5000, -84.441
1543.6000, -82.304
1543.7000, -85.041
1543.8000, -82.008
1543.9000, -86.835
1544.0000,-210.000
1544.1000, -86.720
1544.2000, -84.224
1544.3000, -94.627
1544.4000, -83.753
1544.5000, -90.189
1544.6000, -82.921
1544.7000, -80.331
1544.8000,-210.000
1544.9000,-210.000
1545.0000, -82.939
1545.1000, -84.299
1545.2000, -86.833
1545.3000, -85.065
1545.4000, -84.412
1545.5000, -85.277
1545.6000, -85.815
1545.7000,-100.285
1545.8000, -85.348
1545.9000, -83.968
1546.0000, -88.416
1546.1000, -87.728
1546.2000, -83.212
1546.3000, -87.273
1546.4000, -84.445
1546.5000, -84.130
1546.6000, -90.522
1546.7000, -86.046
1546.8000, -85.959
1546.9000, -87.353
1547.0000, -82.761
1547.1000, -83.236
1547.2000, -83.567
1547.3000, -85.169
1547.4000, -85.212
1547.5000, -83.731
1547.6000, -84.903
1547.7000, -94.436
1547.8000,-210.000
1547.9000, -83.532
1548.0000, -83.881
1548.1000, -86.482
1548.2000, -85.604
1548.3000, -82.931
1548.4000, -82.239
1548.5000, -88.981
1548.6000, -84.478
1548.7000, -86.459
1548.8000, -86.228
1548.9000, -84.962
1549.0000, -81.992
1549.1000, -83.594
1549.2000, -89.564
1549.3000, -80.341
1549.4000,-210.000
1549.5000, -88.863
1549.6000, -83.784
1549.7000, -85.674
1549.8000, -84.312
1549.9000, -91.775
1550.0000, -83.465
1550.1000, -85.932
1550.2000, -82.679
1550.3000, -84.254
1550.4000, -91.088
1550.5000, -84.699
1550.6000,-210.000
1550.7000,-210.000
1550.8000, -82.663
1550.9000, -81.502
1551.0000,-210.000
1551.1000, -83.558
1551.2000,-210.000
1551.3000, -81.110
1551.4000, -80.034
1551.5000, -86.302
1551.6000, -84.903
1551.7000,-210.000
1551.8000, -85.248
1551.9000, -84.189
1552.0000, -91.087
1552.1000, -85.329
1552.2000, -79.974
1552.3000, -90.720
1552.4000, -87.089
1552.5000,-210.000
1552.6000, -86.305
1552.7000, -84.481
1552.8000, -85.788
1552.9000, -85.380
1553.0000, -86.262
1553.1000, -90.373
1553.2000, -85.854
1553.3000, -90.027
1553.4000,-106.118
1553.5000, -88.395
1553.6000, -82.110
1553.7000, -84.861
1553.8000, -83.178
1553.9000, -88.929
1554.0000,-210.000
1554.1000,-210.000
1554.2000, -82.905
1554.3000, -84.847
1554.4000, -86.357
1554.5000, -84.792
1554.6000, -91.846
1554.7000, -85.286
1554.8000, -81.570
1554.9000, -86.446
1555.0000, -90.145
1555.1000, -82.079
1555.2000, -85.799
1555.3000,-210.000
1555.4000,-210.000
1555.5000, -84.279
1555.6000, -82.273
1555.7000,-210.000
1555.8000, -86.278
1555.9000, -83.478
1556.0000, -88.800
1556.1000, -85.439
1556.2000, -84.708
1556.3000, -80.747
1556.4000,-210.000
1556.5000, -84.537
1556.6000, -82.378
1556.7000, -84.102
1556.8000,-210.000
1556.9000, -85.736
1557.0000, -84.003
1557.1000, -81.436
1557.2000, -81.162
1557.3000,-210.000
1557.4000, -80.065
1557.5000, -85.509
1557.6000, -82.150
1557.7000,-210.000
1557.8000, -82.784
1557.9000, -85.820
1558.0000, -85.188
1558.1000, -83.361
1558.2000, -81.523
1558.3000, -86.179
1558.4000,-210.000
1558.5000, -81.415
1558.6000,-210.000
1558.7000, -79.943
1558.8000,-210.000
1558.9000, -79.329
1559.0000,-210.000
1559.1000, -87.495
1559.2000, -83.735
1559.3000, -82.679
1559.4000, -90.374
1559.5000, -82.635
1559.6000, -83.190
1559.7000, -87.423
1559.8000, -97.095
1559.9000, -87.580
1560.0000, -82.448
1560.1000, -84.600
1560.2000, -82.636
1560.3000,-210.000
1560.4000, -94.561
1560.5000, -86.256
1560.6000, -85.274
1560.7000, -84.335
1560.8000, -84.348
1560.9000, -93.214
1561.0000, -84.153
1561.1000, -83.074
1561.2000, -87.136
1561.3000, -85.076
1561.4000, -84.092
1561.5000, -97.178
1561.6000, -81.795
1561.7000, -90.494
1561.8000, -80.905
1561.9000,-210.000
1562.0000, -85.199
1562.1000, -91.018
1562.2000, -88.241
1562.3000, -81.742
1562.4000,-210.000
1562.5000, -79.862
1562.6000,-210.000
1562.7000, -83.386
1562.8000, -83.395
1562.9000, -85.908
1563.0000, -84.438
1563.1000, -86.158
1563.2000, -85.483
1563.3000, -85.945
1563.4000, -81.228
1563.5000,-210.000
1563.6000, -85.175
1563.7000, -83.441
1563.8000, -84.092
1563.9000, -81.810
1564.0000, -87.328
1564.1000, -85.247
1564.2000, -83.494
1564.3000, -84.306
1564.4000, -86.156
1564.5000, -84.293
1564.6000, -84.335
1564.7000,-210.000
1564.8000, -80.963
1564.9000, -82.749
1565.0000, -89.360
1565.1000, -82.977
1565.2000, -92.196
1565.3000, -84.922
1565.4000, -87.138
1565.5000, -85.224
1565.6000, -83.711
1565.7000, -90.126
1565.8000, -83.121
1565.9000, -83.889
1566.0000, -82.365
1566.1000, -89.118
1566.2000, -82.074
1566.3000, -83.723
1566.4000, -87.908
1566.5000,-210.000
1566.6000,-210.000
1566.7000, -78.654
1566.8000, -97.446
1566.9000, -84.971
1567.0000, -83.330
1567.1000, -84.673
1567.2000, -89.518
1567.3000, -83.787
1567.4000, -84.830
1567.5000, -84.490
1567.6000, -85.367
1567.7000, -81.662
1567.8000, -84.221
1567.9000,-210.000
1568.0000, -84.259
1568.1000, -85.017
1568.2000, -81.279
1568.3000, -88.981
1568.4000, -84.240
1568.5000, -82.601
1568.6000, -98.929
1568.7000, -81.173
1568.8000, -88.833
1568.9000, -85.412
1569.0000, -82.694
1569.1000, -93.673
1569.2000, -83.902
1569.3000, -85.257
1569.4000, -84.625
1569.5000, -81.365
1569.6000,-210.000
1569.7000, -82.823
1569.8000,-210.000
1569.9000, -86.114
1570.0000, -83.673
1570.1000, -87.213
1570.2000, -87.844
1570.3000, -82.923
1570.4000, -82.925
1570.5000, -87.514
1570.6000, -83.422
1570.7000, -83.254
1570.8000,-210.000
1570.9000, -80.563
1571.0000, -83.950
1571.1000,-210.000
1571.2000, -79.941
1571.3000,-210.000
1571.4000, -90.030
1571.5000, -90.682
1571.6000, -84.680
1571.7000, -82.075
1571.8000, -94.410
1571.9000, -88.257
1572.0000, -83.084
1572.1000, -83.273
1572.2000,-210.000
1572.3000, -90.335
1572.4000, -85.986
1572.5000, -83.775
1572.6000, -86.871
1572.7000, -83.399
1572.8000, -91.332
1572.9000, -82.687
1573.0000, -83.069
1573.1000, -88.441
1573.2000, -83.504
1573.3000, -90.982
1573.4000, -86.559
1573.5000, -86.147
1573.6000, -87.285
1573.7000,-210.000
1573.8000, -83.639
1573.9000, -82.146
1574.0000, -91.472
1574.1000, -89.783
1574.2000, -84.793
1574.3000, -83.289
1574.4000, -82.356
1574.5000, -93.703
1574.6000, -82.888
1574.7000, -83.434
1574.8000,-210.000
1574.9000, -84.325
1575.0000, -82.852
1575.1000, -84.562
1575.2000, -80.967
1575.3000,-210.000
1575.4000, -83.437
1575.5000,-210.000
1575.6000, -81.924
1575.7000, -81.988
1575.8000,-210.000
1575.9000, -86.119
1576.0000, -84.706
1576.1000, -82.119
1576.2000,-210.000
1576.3000,-210.000
1576.4000, -85.428
1576.5000, -85.192
1576.6000, -83.395
1576.7000, -82.387
1576.8000, -90.209
1576.9000, -86.281
1577.0000, -90.163
1577.1000, -79.800
1577.2000,-210.000
1577.3000, -79.454
1577.4000, -83.018
1577.5000,-210.000
1577.6000,-210.000
1577.7000, -86.347
1577.8000, -81.503
1577.9000, -86.930
1578.0000, -83.693
1578.1000, -87.527
1578.2000,-101.208
1578.3000, -83.094
1578.4000, -85.508
1578.5000, -83.804
1578.6000, -85.029
1578.7000, -82.353
1578.8000, -85.432
1578.9000,-210.000
1579.0000, -81.499
1579.1000, -83.588
1579.2000, -83.649
1579.3000, -83.101
1579.4000, -87.820
1579.5000, -79.900
1579.6000, -86.055
1579.7000, -85.585
1579.8000, -88.418
1579.9000, -79.573
1580.0000,-210.000
1580.1000, -88.664
1580.2000, -84.520
1580.3000,-210.000
1580.4000, -83.737
1580.5000, -87.572
1580.6000, -82.293
1580.7000, -81.942
1580.8000, -92.679
1580.9000, -82.692
1581.0000, -83.677
1581.1000, -97.912
1581.2000, -83.261
1581.3000, -82.478
1581.4000,-210.000
1581.5000, -85.353
1581.6000, -85.173
1581.7000, -83.332
1581.8000,-210.000
1581.9000, -80.925
1582.0000, -85.136
1582.1000, -84.212
1582.2000, -81.839
1582.3000, -96.194
1582.4000, -83.324
1582.5000,-210.000
1582.6000, -81.047
1582.7000, -81.464
1582.8000, -85.038
1582.9000,-210.000
1583.0000, -83.044
1583.1000, -90.523
1583.2000, -80.897
1583.3000, -82.808
1583.4000, -88.310
1583.5000, -85.718
1583.6000,-210.000
1583.7000, -88.100
1583.8000,-210.000
1583.9000, -83.999
1584.0000, -83.763
1584.1000, -89.638
1584.2000, -83.538
1584.3000, -86.706
1584.4000, -81.145
1584.5000, -81.542
1584.6000,-210.000
1584.7000, -87.603
1584.8000, -88.758
1584.9000, -84.228
1585.0000,-102.921
1585.1000, -81.724
1585.2000, -85.005
1585.3000, -84.331
1585.4000, -89.632
1585.5000, -84.065
1585.6000, -85.892
1585.7000,-210.000
1585.8000, -83.318
1585.9000, -83.553
1586.0000, -82.852
1586.1000, -90.140
1586.2000, -83.020
1586.3000, -83.586
1586.4000,-128.881
1586.5000, -92.339
1586.6000, -85.036
1586.7000, -81.611
1586.8000, -86.412
1586.9000, -90.424
1587.0000, -86.381
1587.1000, -82.769
1587.2000, -84.483
1587.3000, -84.524
1587.4000, -83.983
1587.5000, -85.930
1587.6000, -82.592
1587.7000, -84.527
1587.8000, -86.683
1587.9000, -82.438
1588.0000,-210.000
1588.1000, -82.143
1588.2000, -96.213
1588.3000, -83.073
1588.4000, -88.722
1588.5000, -84.985
1588.6000, -83.088
1588.7000, -82.939
1588.8000, -94.251
1588.9000, -85.033
1589.0000, -84.084
1589.1000, -87.811
1589.2000, -84.817
1589.3000, -84.475
1589.4000, -83.742
1589.5000, -86.503
1589.6000, -87.986
1589.7000, -84.767
1589.8000, -84.016
1589.9000, -81.081
1590.0000, -86.245
1590.1000, -82.731
1590.2000, -79.371
1590.3000,-210.000
1590.4000, -91.426
1590.5000, -82.187
1590.6000, -86.643
1590.7000, -83.065
1590.8000, -84.551
1590.9000, -87.422
1591.0000, -81.680
1591.1000, -82.974
1591.2000, -95.606
1591.3000, -82.288
1591.4000,-210.000
1591.5000, -83.226
1591.6000, -85.629
1591.7000, -84.333
1591.8000,-210.000
1591.9000, -83.681
1592.0000,-112.259
1592.1000, -81.997
1592.2000, -81.006
1592.3000, -81.515
1592.4000,-210.000
1592.5000, -82.415
1592.6000,-210.000
1592.7000, -81.844
1592.8000, -81.759
1592.9000,-210.000
1593.0000, -82.220
1593.1000, -83.079
1593.2000,-210.000
1593.3000, -85.280
1593.4000,-210.000
1593.5000, -87.717
1593.6000, -84.437
1593.7000, -88.950
1593.8000, -85.009
1593.9000, -82.674
1594.0000, -84.516
1594.1000, -88.033
1594.2000, -82.090
1594.3000, -83.865
1594.4000,-210.000
1594.5000, -85.035
1594.6000, -83.306
1594.7000, -86.810
1594.8000, -82.151
1594.9000, -88.568
1595.0000, -81.969
1595.1000, -83.120
1595.2000, -89.483
1595.3000, -87.925
1595.4000, -83.913
1595.5000, -83.732
1595.6000, -85.396
1595.7000, -84.568
1595.8000, -81.476
1595.9000,-210.000
1596.0000, -87.159
1596.1000, -88.836
1596.2000, -83.098
1596.3000, -85.339
1596.4000, -84.819
1596.5000, -80.866
1596.6000, -89.173
1596.7000, -84.595
1596.8000, -84.256
1596.9000, -85.561
1597.0000, -92.181
1597.1000, -84.966
1597.2000, -85.558
1597.3000, -81.724
1597.4000, -82.238
1597.5000, -83.375
1597.6000, -89.417
1597.7000, -83.000
1597.8000, -85.105
1597.9000, -81.512
1598.0000, -93.989
1598.1000, -81.638
1598.2000, -89.612
1598.3000, -91.015
1598.4000, -88.007
1598.5000, -85.761
1598.6000, -81.481
1598.7000, -83.183
1598.8000, -91.426
1598.9000, -85.213
1599.0000, -87.142
1599.1000, -85.873
1599.2000, -82.870
1599.3000, -85.033
1599.4000, -83.323
1599.5000,-210.000
1599.6000, -83.680
1599.7000, -81.401
1599.8000,-210.000
1599.9000, -84.857
1600.0000, -82.987
1600.1000, -81.308
1600.2000, -86.009
1600.3000, -83.222
1600.4000,-210.000
1600.5000, -92.832
1600.6000, -88.139
1600.7000, -84.831
1600.8000, -83.864
1600.9000, -83.613
1601.0000, -85.377
1601.1000, -85.526
1601.2000, -85.867
1601.3000, -82.781
1601.4000, -80.187
1601.5000,-210.000
1601.6000, -90.117
1601.7000, -82.431
1601.8000, -87.528
1601.9000,-210.000
1602.0000, -82.362
1602.1000, -85.481
1602.2000, -81.022
1602.3000, -95.442
1602.4000, -86.428
1602.5000, -84.481
1602.6000, -86.125
1602.7000, -87.624
1602.8000, -82.709
1602.9000, -80.908
1603.0000,-210.000
1603.1000, -84.972
1603.2000, -88.762
1603.3000, -85.599
1603.4000, -83.295
1603.5000, -83.505
1603.6000, -82.571
1603.7000, -93.225
1603.8000, -85.881
1603.9000, -82.107
1604.0000, -88.653
1604.1000, -85.604
1604.2000, -86.166
1604.3000, -83.652
1604.4000, -86.061
1604.5000, -84.223
1604.6000, -83.115
1604.7000, -84.098
1604.8000, -89.210
1604.9000, -84.917
1605.0000, -84.617
1605.1000, -83.174
1605.2000, -91.081
1605.3000, -83.619
1605.4000, -88.440
1605.5000, -83.531
1605.6000, -84.963
1605.7000, -80.518
1605.8000, -94.720
1605.9000, -83.803
1606.0000, -84.328
1606.1000, -81.170
1606.2000,-210.000
1606.3000, -85.207
1606.4000, -81.263
1606.5000, -85.980
1606.6000, -80.000
1606.7000, -83.530
1606.8000, -72.305
1606.9000,-210.000
1607.0000, -74.759
1607.1000, -78.866
1607.2000,-210.000
1607.3000,-210.000
1607.4000,-210.000
1607.5000, -89.402
1607.6000, -81.448
1607.7000, -85.050
1607.8000, -83.479
1607.9000, -90.953
1608.0000,-210.000
1608.1000, -81.681
1608.2000, -97.321
1608.3000, -83.156
1608.4000, -86.301
1608.5000, -89.645
1608.6000, -84.041
1608.7000, -82.767
1608.8000, -88.051
1608.9000, -84.048
1609.0000, -84.220
1609.1000, -84.257
1609.2000, -81.318
1609.3000, -88.712
1609.4000, -86.960
1609.5000, -86.714
1609.6000, -85.347
1609.7000, -93.919
1609.8000,-210.000
1609.9000, -85.237
1610.0000, -80.579
1610.1000, -82.731
1610.2000, -90.948
1610.3000, -82.505
1610.4000, -87.630
1610.5000, -86.885
1610.6000, -87.501
1610.7000, -84.435
1610.8000, -82.693
1610.9000, -81.685
1611.0000, -85.878
1611.1000, -81.494
1611.2000,-210.000
1611.3000, -85.925
1611.4000, -79.358
1611.5000,-210.000
1611.6000, -84.705
1611.7000, -86.616
1611.8000, -86.053
1611.9000, -80.806
1612.0000,-104.881
1612.1000, -85.838
1612.2000, -83.704
1612.3000, -82.538
1612.4000, -87.128
1612.5000, -82.827
1612.6000, -89.892
1612.7000, -89.441
1612.8000, -83.937
1612.9000, -85.407
1613.0000, -79.364
1613.1000,-210.000
1613.2000, -80.411
1613.3000,-210.000
1613.4000, -84.953
1613.5000, -82.230
1613.6000, -84.841
1613.7000, -85.532
1613.8000, -82.817
1613.9000, -83.959
1614.0000, -84.558
1614.1000, -85.391
1614.2000, -81.411
1614.3000, -83.240
1614.4000, -87.565
1614.5000, -83.040
1614.6000, -84.411
1614.7000, -82.845
1614.8000, -82.829
1614.9000, -84.369
1615.0000, -85.605
1615.1000, -86.906
1615.2000, -83.425
1615.3000, -87.728
1615.4000, -83.312
1615.5000, -82.627
1615.6000, -85.704
1615.7000, -81.832
1615.8000, -81.733
1615.9000, -81.834
1616.0000, -81.152
1616.1000, -86.124
1616.2000, -81.688
1616.3000, -81.218
1616.4000, -83.863
1616.5000, -81.223
1616.6000, -87.623
1616.7000, -81.431
1616.8000, -78.997
1616.9000, -81.278
1617.0000, -80.377
1617.1000, -82.198
1617.2000, -80.474
1617.3000, -81.521
1617.4000, -79.657
1617.5000, -81.033
1617.6000, -79.171
1617.7000, -81.071
1617.8000, -81.638
1617.9000, -80.082
1618.0000, -79.372
1618.1000, -80.608
1618.2000, -80.589
1618.3000, -78.514
1618.4000, -82.151
1618.5000, -79.585
1618.6000, -80.008
1618.7000, -79.272
1618.8000, -78.805
1618.9000, -80.425
1619.0000, -78.834
1619.1000, -78.612
1619.2000, -78.796
1619.3000, -78.101
1619.4000, -79.444
1619.5000, -77.749
1619.6000, -79.306
1619.7000, -78.588
1619.8000, -77.504
1619.9000, -79.363
1620.0000, -78.651
1620.1000, -81.040
1620.2000, -79.801
1620.3000, -80.854
1620.4000,-210.000
1620.5000, -81.359
1620.6000, -87.232
1620.7000, -85.531
1620.8000, -84.672
1620.9000, -85.673
1621.0000, -81.720
1621.1000, -89.733
1621.2000, -86.342
1621.3000, -81.942
1621.4000, -83.857
1621.5000, -85.545
1621.6000,-210.000
1621.7000, -81.619
1621.8000, -83.812
1621.9000, -79.613
1622.0000,-210.000
1622.1000, -82.390
1622.2000, -89.463
1622.3000, -81.247
1622.4000, -86.465
1622.5000, -81.128
1622.6000, -80.126
1622.7000, -81.761
1622.8000, -85.363
1622.9000, -80.376
1623.0000, -80.784
1623.1000,-210.000
1623.2000, -80.564
1623.3000,-210.000
1623.4000, -80.725
1623.5000, -90.814
1623.6000, -79.057
1623.7000, -84.489
1623.8000,-210.000
1623.9000, -84.833
1624.0000, -85.306
1624.1000, -83.578
1624.2000, -80.013
1624.3000, -86.448
1624.4000,-210.000
1624.5000, -79.663
1624.6000, -83.502
1624.7000, -83.130
1624.8000, -82.942
1624.9000, -84.088
1625.0000,-210.000
1625.1000, -81.266
1625.2000, -81.847
1625.3000, -80.883
1625.4000, -82.444
1625.5000, -83.311
1625.6000, -79.831
1625.7000, -96.585
1625.8000, -81.442
1625.9000,-210.000
1626.0000, -80.926
1626.1000, -82.421
1626.2000, -82.242
1626.3000,-210.000
1626.4000, -85.007
1626.5000, -82.515
1626.6000, -84.214
1626.7000, -79.669
1626.8000, -82.515
1626.9000, -80.669
1627.0000, -95.263
1627.1000, -83.651
1627.2000, -80.151
1627.3000,-210.000
1627.4000, -90.136
1627.5000, -83.404
1627.6000, -88.571
1627.7000, -85.040
1627.8000, -85.232
1627.9000, -82.104
1628.0000, -87.815
1628.1000, -80.506
1628.2000, -80.852
1628.3000, -81.921
1628.4000,-210.000
1628.5000, -78.752
1628.6000, -83.133
1628.7000, -88.419
1628.8000, -84.151
1628.9000, -81.611
1629.0000, -83.559
1629.1000, -84.621
1629.2000, -79.336
1629.3000,-210.000
1629.4000, -91.740
1629.5000, -83.288
1629.6000, -82.857
1629.7000, -77.598
1629.8000, -83.852
1629.9000, -83.054
1630.0000, -92.993
1630.1000, -81.201
1630.2000, -79.586
1630.3000,-210.000
1630.4000, -83.094
1630.5000, -81.971
1630.6000, -83.163
1630.7000, -86.170
1630.8000, -80.783
1630.9000, -83.574
1631.0000, -80.641
1631.1000, -77.876
1631.2000,-210.000
1631.3000, -81.306
1631.4000, -82.777
1631.5000, -87.036
1631.6000, -86.423
1631.7000, -80.991
1631.8000, -87.034
1631.9000, -81.189
1632.0000,-210.000
1632.1000, -81.504
1632.2000, -89.596
1632.3000, -81.523
1632.4000, -80.482
1632.5000, -81.783
1632.6000, -80.422
1632.7000, -78.880
1632.8000,-210.000
1632.9000, -79.907
1633.0000, -81.460
1633.1000, -82.281
1633.2000, -81.169
1633.3000,-210.000
1633.4000, -79.515
1633.5000, -90.533
1633.6000, -78.048
1633.7000, -84.350
1633.8000, -87.165
1633.9000, -83.823
1634.0000, -83.733
1634.1000, -79.395
1634.2000, -82.934
1634.3000, -88.047
1634.4000, -81.548
1634.5000, -79.036
1634.6000, -89.313
1634.7000, -84.304
1634.8000, -85.949
1634.9000, -82.337
1635.0000,-210.000
1635.1000, -87.599
1635.2000, -82.128
1635.3000, -80.796
1635.4000, -79.990
1635.5000, -79.135
1635.6000,-105.736
1635.7000, -87.738
1635.8000, -79.847
1635.9000, -82.076
1636.0000, -81.918
1636.1000,-210.000
1636.2000,-210.000
1636.3000, -82.032
1636.4000, -84.238
1636.5000, -82.186
1636.6000, -80.258
1636.7000, -80.915
1636.8000, -78.954
1636.9000, -81.956
1637.0000, -86.467
1637.1000, -83.515
1637.2000, -81.897
1637.3000, -77.593
1637.4000,-210.000
1637.5000, -81.535
1637.6000, -79.105
1637.7000,-210.000
1637.8000, -80.818
1637.9000, -79.673
1638.0000, -81.697
1638.1000,-210.000
1638.2000, -79.410
1638.3000, -78.346
1638.4000,-210.000
1638.5000, -83.245
1638.6000, -81.115
1638.7000, -80.579
1638.8000, -82.561
1638.9000, -79.372
1639.0000, -89.680
1639.1000, -86.906
1639.2000, -77.690
1639.3000, -84.082
1639.4000, -84.520
1639.5000, -79.942
1639.6000, -79.480
1639.7000, -77.080
1639.8000,-210.000
1639.9000, -79.497
1640.0000, -78.798
1640.1000,-210.000
1640.2000, -90.798
1640.3000, -83.420
1640.4000, -78.723
1640.5000, -83.155
1640.6000, -82.640
1640.7000, -81.998
1640.8000, -80.721
1640.9000, -81.605
1641.0000, -77.371
1641.1000, -81.736
1641.2000, -85.885
1641.3000, -88.811
1641.4000, -83.045
1641.5000, -78.264
1641.6000, -85.721
1641.7000, -79.823
1641.8000, -80.382
1641.9000, -79.967
1642.0000, -79.520
1642.1000, -81.390
1642.2000, -77.420
1642.3000, -77.653
1642.4000,-210.000
1642.5000, -80.967
1642.6000, -87.980
1642.7000, -80.891
1642.8000, -76.250
1642.9000,-210.000
1643.0000, -82.760
1643.1000, -76.946
1643.2000, -82.789
1643.3000, -80.499
1643.4000, -77.337
1643.5000, -78.412
1643.6000,-210.000
1643.7000,-210.000
1643.8000, -76.596
1643.9000,-210.000
1644.0000, -78.598
1644.1000, -78.664
1644.2000, -80.279
1644.3000, -87.248
1644.4000, -79.328
1644.5000, -79.500
1644.6000, -85.272
1644.7000, -76.414
1644.8000,-210.000
1644.9000, -79.621
1645.0000, -82.834
1645.1000, -85.124
1645.2000, -78.182
1645.3000, -82.096
1645.4000, -86.350
1645.5000, -80.219
1645.6000, -80.124
1645.7000, -77.296
1645.8000, -79.617
1645.9000, -83.272
1646.0000,-210.000
1646.1000, -75.770
1646.2000, -77.179
1646.3000, -78.639
1646.4000, -79.584
1646.5000,-210.000
1646.6000, -74.220
1646.7000, -78.209
1646.8000,-210.000
1646.9000, -71.916
1647.0000,-210.000
1647.1000, -79.628
1647.2000, -77.097
1647.3000, -77.657
1647.4000,-210.000
1647.5000, -79.807
1647.6000, -78.095
1647.7000, -77.666
1647.8000, -83.412
1647.9000, -76.998
1648.0000, -86.793
1648.1000, -78.732
1648.2000, -81.883
1648.3000, -77.507
1648.4000, -78.192
1648.5000, -85.514
1648.6000, -77.199
1648.7000, -84.436
1648.8000,-210.000
1648.9000, -76.679
1649.0000, -79.628
1649.1000, -80.256
1649.2000, -81.472
1649.3000, -77.745
1649.4000, -77.185
1649.5000, -84.360
1649.6000, -79.494
1649.7000, -76.608
1649.8000, -79.281
1649.9000, -81.110
1650.0000, -88.576
1650.1000, -76.119
1650.2000, -76.931
1650.3000, -84.226
1650.4000, -76.693
1650.5000, -80.791
1650.6000, -80.575
1650.7000, -81.239
1650.8000, -81.568
1650.9000, -79.589
1651.0000, -72.584
1651.1000, -81.016
1651.2000,-210.000
1651.3000, -78.885
1651.4000, -79.205
1651.5000, -80.646
1651.6000,-210.000
1651.7000, -75.449
1651.8000, -82.361
1651.9000, -75.866
1652.0000, -84.113
1652.1000, -79.421
1652.2000, -76.983
1652.3000, -80.196
1652.4000, -81.813
1652.5000, -76.394
1652.6000,-210.000
1652.7000, -80.748
1652.8000,-210.000
1652.9000, -86.022
1653.0000, -75.991
1653.1000, -76.768
1653.2000, -75.229
1653.3000, -73.135
1653.4000,-210.000
1653.5000, -71.486
1653.6000, -79.485
1653.7000,-210.000
1653.8000, -74.133
1653.9000, -73.907
1654.0000,-210.000
1654.1000, -74.933
1654.2000, -77.351
1654.3000, -82.058
1654.4000, -75.037
1654.5000, -74.235
1654.6000,-210.000
1654.7000, -73.416
1654.8000, -78.786
1654.9000, -77.736
1655.0000, -75.167
1655.1000,-210.000
1655.2000, -79.854
1655.3000, -73.382
1655.4000, -76.012
1655.5000,-210.000
1655.6000, -82.660
1655.7000, -75.811
1655.8000, -73.434
1655.9000, -72.674
1656.0000,-210.000
1656.1000, -71.830
1656.2000, -76.407
1656.3000, -80.795
1656.4000,-210.000
1656.5000, -74.375
1656.6000, -79.775
1656.7000, -73.262
1656.8000, -73.451
1656.9000, -79.256
1657.0000, -77.892
1657.1000, -76.070
1657.2000, -81.614
1657.3000, -75.133
1657.4000, -78.882
1657.5000, -73.492
1657.6000, -85.465
1657.7000, -75.799
1657.8000, -75.267
1657.9000, -80.244
1658.0000, -81.047
1658.1000, -82.208
1658.2000, -76.977
1658.3000, -75.743
1658.4000, -75.069
1658.5000, -80.264
1658.6000, -72.585
1658.7000, -78.532
1658.8000, -74.051
1658.9000,-210.000
1659.0000, -75.407
1659.1000, -74.278
1659.2000, -90.276
1659.3000,-210.000
1659.4000, -73.820
1659.5000, -72.386
1659.6000, -80.914
1659.7000, -73.652
1659.8000,-210.000
1659.9000, -74.398
1660.0000, -78.411
1660.1000, -72.948
1660.2000,-210.000
1660.3000, -80.075
1660.4000, -73.922
1660.5000, -75.294
1660.6000,-210.000
1660.7000, -73.834
1660.8000, -75.341
1660.9000, -77.365
1661.0000, -77.355
1661.1000, -76.098
1661.2000, -71.312
1661.3000,-210.000
1661.4000, -72.665
1661.5000, -76.451
1661.6000,-210.000
1661.7000, -70.112
1661.8000, -80.363
1661.9000, -76.053
1662.0000, -73.032
1662.1000,-210.000
1662.2000, -79.916
1662.3000, -74.718
1662.4000, -78.071
1662.5000,-210.000
1662.6000, -75.960
1662.7000, -73.197
1662.8000, -74.898
1662.9000, -73.278
1663.0000, -70.971
1663.1000,-210.000
1663.2000, -75.020
1663.3000, -74.457
1663.4000, -85.827
1663.5000, -73.688
1663.6000, -77.910
1663.7000, -77.450
1663.8000, -71.716
1663.9000, -75.451
1664.0000, -73.366
1664.1000, -73.321
1664.2000, -73.040
1664.3000, -77.549
1664.4000, -76.187
1664.5000, -78.112
1664.6000, -73.679
1664.7000, -75.560
1664.8000, -73.960
1664.9000, -75.341
1665.0000, -75.373
1665.1000, -72.810
1665.2000, -73.639
1665.3000, -73.298
1665.4000, -77.897
1665.5000, -72.620
1665.6000, -73.790
1665.7000, -82.961
1665.8000, -81.956
1665.9000, -77.591
1666.0000, -74.243
1666.1000, -77.473
1666.2000, -78.348
1666.3000, -75.460
1666.4000, -82.009
1666.5000, -74.267
1666.6000, -77.179
1666.7000, -74.165
1666.8000, -73.819
1666.9000,-210.000
1667.0000, -73.897
1667.1000, -72.123
1667.2000, -78.805
1667.3000, -74.840
1667.4000, -74.813
1667.5000, -75.304
1667.6000, -79.861
1667.7000, -71.238
1667.8000, -72.533
1667.9000, -75.441
1668.0000, -72.099
1668.1000, -76.685
1668.2000, -74.733
1668.3000, -73.894
1668.4000, -74.211
1668.5000, -73.417
1668.6000, -75.606
1668.7000, -70.911
1668.8000,-210.000
1668.9000, -72.762
1669.0000, -71.970
1669.1000, -76.217
1669.2000, -73.092
1669.3000, -74.311
1669.4000, -72.521
1669.5000, -71.318
1669.6000, -70.903
1669.7000, -74.817
1669.8000, -67.980
1669.9000,-210.000
1670.0000, -69.248
1670.1000,-210.000
1670.2000, -82.379
1670.3000, -71.812
1670.4000, -78.687
1670.5000, -76.264
1670.6000,-210.000
1670.7000, -69.831
1670.8000, -76.378
1670.9000, -70.772
1671.0000, -75.137
1671.1000, -73.264
1671.2000, -74.135
1671.3000, -77.597
1671.4000, -73.090
1671.5000, -75.938
1671.6000, -73.030
1671.7000, -74.200
1671.8000, -73.634
1671.9000, -73.977
1672.0000, -72.712
1672.1000, -72.910
1672.2000, -70.440
1672.3000, -76.698
1672.4000, -71.644
1672.5000, -75.860
1672.6000, -73.659
1672.7000,-210.000
1672.8000, -73.787
1672.9000, -69.516
1673.0000, -74.802
1673.1000,-210.000
1673.2000, -70.964
1673.3000, -83.579
1673.4000, -76.586
1673.5000, -70.700
1673.6000, -70.099
1673.7000, -87.456
1673.8000,-210.000
1673.9000, -70.984
1674.0000, -72.155
1674.1000, -71.564
1674.2000, -70.431
1674.3000, -75.905
1674.4000, -73.055
1674.5000, -72.309
1674.6000, -80.315
1674.7000, -74.400
1674.8000, -71.724
1674.9000, -80.924
1675.0000, -72.337
1675.1000, -72.362
1675.2000, -71.186
1675.3000, -75.794
1675.4000,-210.000
1675.5000, -68.831
1675.6000, -71.530
1675.7000, -79.079
1675.8000, -68.717
1675.9000, -67.891
1676.0000,-210.000
1676.1000, -70.321
1676.2000, -77.759
1676.3000, -74.343
1676.4000, -69.893
1676.5000, -75.744
1676.6000, -70.439
1676.7000, -74.482
1676.8000, -73.107
1676.9000, -69.662
1677.0000,-210.000
1677.1000, -70.985
1677.2000, -68.327
1677.3000, -75.489
1677.4000, -70.364
1677.5000, -70.050
1677.6000, -74.842
1677.7000, -71.265
1677.8000, -69.779
1677.9000, -76.953
1678.0000, -69.711
1678.1000, -66.425
1678.2000, -77.681
1678.3000,-210.000
1678.4000, -68.878
1678.5000, -67.722
1678.6000,-210.000
1678.7000, -73.110
1678.8000,-210.000
1678.9000, -68.361
1679.0000, -66.683
1679.1000, -71.282
1679.2000, -75.429
1679.3000, -67.858
1679.4000,-210.000
1679.5000, -67.445
1679.6000, -75.086
1679.7000, -74.153
1679.8000, -70.284
1679.9000, -69.558
1680.0000, -72.451
1680.1000, -71.054
1680.2000, -69.334
1680.3000, -70.310
1680.4000, -70.838
1680.5000, -78.726
1680.6000, -69.822
1680.7000, -68.674
1680.8000, -77.782
1680.9000, -70.442
1681.0000, -73.952
1681.1000, -67.401
1681.2000, -69.810
1681.3000, -78.369
1681.4000, -71.733
1681.5000, -71.545
1681.6000, -68.327
1681.7000, -68.095
1681.8000, -69.751
1681.9000, -73.042
1682.0000, -69.543
1682.1000, -70.629
1682.2000,-210.000
1682.3000, -66.944
1682.4000, -74.745
1682.5000, -68.544
1682.6000,-210.000
1682.7000, -72.752
1682.8000, -70.185
1682.9000, -71.706
1683.0000, -69.366
1683.1000, -70.442
1683.2000, -71.402
1683.3000, -71.384
1683.4000, -76.505
1683.5000, -71.120
1683.6000, -67.217
1683.7000, -73.843
1683.8000, -70.534
1683.9000, -67.798
1684.0000,-210.000
1684.1000, -71.005
1684.2000, -71.032
1684.3000, -74.629
1684.4000, -74.449
1684.5000, -68.021
1684.6000, -71.495
1684.7000, -91.656
1684.8000, -73.071
1684.9000, -73.912
1685.0000, -67.636
1685.1000, -76.775
1685.2000, -71.548
1685.3000, -68.560
1685.4000, -70.793
1685.5000,-210.000
1685.6000, -72.676
1685.7000, -68.229
1685.8000, -68.968
1685.9000,-210.000
1686.0000, -68.674
1686.1000, -72.342
1686.2000, -67.902
1686.3000, -72.449
1686.4000, -68.951
1686.5000, -70.114
1686.6000, -68.445
1686.7000, -69.462
1686.8000, -66.781
1686.9000,-210.000
1687.0000, -69.532
1687.1000, -68.359
1687.2000, -67.534
1687.3000, -66.966
1687.4000,-210.000
1687.5000, -66.815
1687.6000, -74.460
1687.7000, -68.407
1687.8000, -69.417
1687.9000, -69.936
1688.0000, -72.463
1688.1000, -69.914
1688.2000, -70.042
1688.3000, -72.018
1688.4000, -67.531
1688.5000, -70.813
1688.6000, -70.052
1688.7000, -69.634
1688.8000, -67.195
1688.9000, -70.468
1689.0000, -70.343
1689.1000, -67.387
1689.2000, -71.671
1689.3000, -69.212
1689.4000, -67.941
1689.5000, -69.313
1689.6000, -71.938
1689.7000, -67.805
1689.8000, -69.057
1689.9000, -69.264
1690.0000, -69.160
1690.1000, -65.270
1690.2000,-210.000
1690.3000, -68.000
1690.4000, -67.858
1690.5000,-210.000
1690.6000, -67.416
1690.7000, -66.859
1690.8000, -65.934
1690.9000,-210.000
1691.0000, -65.694
1691.1000, -67.318
1691.2000, -66.973
1691.3000, -66.895
1691.4000, -69.576
1691.5000, -71.673
1691.6000, -72.443
1691.7000, -71.188
1691.8000, -66.780
1691.9000, -65.187
1692.0000, -69.251
1692.1000, -65.517
1692.2000,-210.000
1692.3000, -66.202
1692.4000, -72.936
1692.5000, -66.186
1692.6000,-210.000
1692.7000, -71.006
1692.8000, -63.673
1692.9000, -72.645
1693.0000, -62.910
1693.1000, -72.131
1693.2000, -67.577
1693.3000,-210.000
1693.4000, -63.928
1693.5000, -67.431
1693.6000, -72.003
1693.7000, -66.885
1693.8000, -65.037
1693.9000, -63.626
1694.0000, -63.693
1694.1000, -67.919
1694.2000, -74.716
1694.3000,-210.000
1694.4000, -64.630
1694.5000, -71.974
1694.6000, -68.072
1694.7000, -63.823
1694.8000,-210.000
1694.9000, -66.625
1695.0000, -72.807
1695.1000, -61.933
1695.2000, -73.069
1695.3000, -73.541
1695.4000, -64.639
1695.5000,-210.000
1695.6000, -66.634
1695.7000, -67.535
1695.8000, -65.591
1695.9000, -64.935
1696.0000, -68.874
1696.1000, -67.092
1696.2000,-210.000
1696.3000, -69.762
1696.4000, -64.899
1696.5000, -66.865
1696.6000, -64.287
1696.7000, -68.027
1696.8000, -66.875
1696.9000, -65.045
1697.0000, -69.320
1697.1000, -64.916
1697.2000, -65.860
1697.3000, -65.463
1697.4000, -65.104
1697.5000, -70.860
1697.6000, -69.002
1697.7000,-210.000
1697.8000, -64.625
1697.9000, -67.111
1698.0000, -68.577
1698.1000, -71.050
1698.2000, -68.194
1698.3000, -75.454
1698.4000, -64.713
1698.5000, -70.964
1698.6000, -66.470
1698.7000,-210.000
1698.8000, -63.816
1698.9000, -68.815
1699.0000, -63.935
1699.1000, -63.518
1699.2000, -68.651
1699.3000,-210.000
1699.4000, -71.223
1699.5000, -65.422
1699.6000, -64.411
1699.7000, -67.432
1699.8000, -63.636
1699.9000,-210.000
1700.0000, -63.617
