70BCSV 	
// AQ6370B OPTICAL SPECTRUM ANALYZER //                 
25
"CTRWL",1300.000000
"SPAN", 800.000000
"START WL", 900.000000
"STOP WL",1700.000000
"WLFREQ", 0
"REFL",-17.2
"LSCL",10.0
"RESLN",0.500
"AVG",   1
"SMPLAUTO",      1
"SMPL",       8001
"SMPLINTVL",0.1000
"HIGH1"
"MEAS"
"LSUNT",0
"NMSKH","OFF"
"RESCOR",0
"RESPARM", 9740
"FREQPARM", 9740






"[TRACE DATA]"
 900.0000,-210.000
 900.1000,-210.000
 900.2000, -81.107
 900.3000, -92.657
 900.4000, -72.991
 900.5000,-210.000
 900.6000, -76.679
 900.7000, -73.373
 900.8000,-210.000
 900.9000, -74.650
 901.0000,-210.000
 901.1000, -75.508
 901.2000, -82.636
 901.3000, -81.068
 901.4000,-210.000
 901.5000,-210.000
 901.6000, -73.357
 901.7000,-210.000
 901.8000,-210.000
 901.9000,-210.000
 902.0000, -75.744
 902.1000, -74.221
 902.2000,-210.000
 902.3000, -81.514
 902.4000,-210.000
 902.5000, -76.634
 902.6000, -72.134
 902.7000, -77.179
 902.8000,-210.000
 902.9000, -84.667
 903.0000, -85.426
 903.1000, -76.336
 903.2000, -88.249
 903.3000, -76.881
 903.4000, -78.847
 903.5000, -74.944
 903.6000, -76.818
 903.7000, -89.905
 903.8000, -78.744
 903.9000, -88.648
 904.0000, -74.495
 904.1000, -79.550
 904.2000,-210.000
 904.3000, -76.930
 904.4000, -79.852
 904.5000, -74.752
 904.6000, -78.609
 904.7000,-210.000
 904.8000, -72.008
 904.9000,-210.000
 905.0000, -77.561
 905.1000, -73.235
 905.2000, -77.635
 905.3000, -78.149
 905.4000,-210.000
 905.5000,-210.000
 905.6000, -73.379
 905.7000,-210.000
 905.8000, -78.206
 905.9000, -75.833
 906.0000,-210.000
 906.1000, -74.529
 906.2000,-210.000
 906.3000, -74.738
 906.4000,-210.000
 906.5000, -75.744
 906.6000, -78.003
 906.7000,-210.000
 906.8000, -71.984
 906.9000, -76.026
 907.0000, -83.446
 907.1000,-210.000
 907.2000, -73.486
 907.3000, -73.030
 907.4000, -74.792
 907.5000, -76.277
 907.6000,-210.000
 907.7000,-210.000
 907.8000, -77.919
 907.9000, -80.425
 908.0000, -90.451
 908.1000,-210.000
 908.2000, -73.834
 908.3000, -88.077
 908.4000,-210.000
 908.5000, -85.544
 908.6000, -73.396
 908.7000,-210.000
 908.8000, -75.835
 908.9000, -75.063
 909.0000,-210.000
 909.1000, -76.720
 909.2000, -85.315
 909.3000, -76.758
 909.4000, -81.540
 909.5000,-210.000
 909.6000,-210.000
 909.7000, -79.142
 909.8000, -74.207
 909.9000, -72.297
 910.0000,-210.000
 910.1000, -80.378
 910.2000, -81.957
 910.3000, -76.745
 910.4000, -79.208
 910.5000, -79.696
 910.6000, -72.431
 910.7000, -86.093
 910.8000,-210.000
 910.9000,-210.000
 911.0000, -75.387
 911.1000, -83.068
 911.2000, -86.677
 911.3000, -78.796
 911.4000, -77.845
 911.5000, -79.863
 911.6000, -74.000
 911.7000, -75.799
 911.8000, -75.513
 911.9000,-210.000
 912.0000, -76.086
 912.1000,-210.000
 912.2000, -75.950
 912.3000, -75.561
 912.4000,-210.000
 912.5000, -84.063
 912.6000, -77.819
 912.7000, -77.310
 912.8000, -76.356
 912.9000, -77.522
 913.0000, -74.675
 913.1000, -74.416
 913.2000,-210.000
 913.3000,-210.000
 913.4000, -73.592
 913.5000,-210.000
 913.6000, -77.073
 913.7000,-210.000
 913.8000, -83.879
 913.9000,-210.000
 914.0000, -76.867
 914.1000, -76.882
 914.2000, -82.626
 914.3000, -76.568
 914.4000, -89.783
 914.5000,-210.000
 914.6000, -75.994
 914.7000, -79.909
 914.8000, -93.724
 914.9000, -81.677
 915.0000,-210.000
 915.1000, -75.721
 915.2000, -78.579
 915.3000, -82.157
 915.4000, -83.196
 915.5000,-210.000
 915.6000, -81.474
 915.7000, -75.580
 915.8000,-210.000
 915.9000, -78.650
 916.0000, -79.615
 916.1000, -80.095
 916.2000, -79.300
 916.3000,-210.000
 916.4000, -83.286
 916.5000, -79.054
 916.6000, -72.776
 916.7000, -77.830
 916.8000,-210.000
 916.9000, -96.196
 917.0000, -84.216
 917.1000,-210.000
 917.2000, -79.155
 917.3000, -81.552
 917.4000, -76.058
 917.5000, -75.043
 917.6000,-210.000
 917.7000,-210.000
 917.8000, -82.861
 917.9000, -76.753
 918.0000, -72.120
 918.1000,-210.000
 918.2000,-210.000
 918.3000, -99.924
 918.4000, -81.702
 918.5000, -73.595
 918.6000, -77.262
 918.7000, -77.797
 918.8000, -82.899
 918.9000, -75.754
 919.0000, -83.916
 919.1000, -84.990
 919.2000, -75.388
 919.3000,-210.000
 919.4000, -82.994
 919.5000,-210.000
 919.6000, -75.920
 919.7000, -76.347
 919.8000, -76.757
 919.9000,-210.000
 920.0000,-210.000
 920.1000, -84.889
 920.2000, -78.253
 920.3000, -78.094
 920.4000,-210.000
 920.5000, -73.591
 920.6000,-210.000
 920.7000, -83.028
 920.8000, -79.668
 920.9000, -80.056
 921.0000, -78.534
 921.1000,-210.000
 921.2000, -77.375
 921.3000, -77.996
 921.4000, -75.637
 921.5000, -76.989
 921.6000,-210.000
 921.7000, -79.002
 921.8000, -79.516
 921.9000,-210.000
 922.0000, -79.448
 922.1000, -76.774
 922.2000,-210.000
 922.3000,-210.000
 922.4000, -83.457
 922.5000,-210.000
 922.6000, -77.066
 922.7000, -79.957
 922.8000, -86.516
 922.9000, -83.167
 923.0000,-210.000
 923.1000, -75.654
 923.2000, -77.793
 923.3000, -74.092
 923.4000, -77.925
 923.5000,-210.000
 923.6000,-210.000
 923.7000, -81.682
 923.8000, -77.509
 923.9000,-210.000
 924.0000, -76.036
 924.1000, -77.976
 924.2000,-210.000
 924.3000, -80.242
 924.4000,-210.000
 924.5000,-210.000
 924.6000, -77.102
 924.7000, -80.346
 924.8000, -80.990
 924.9000,-210.000
 925.0000, -79.440
 925.1000, -78.268
 925.2000, -75.701
 925.3000,-210.000
 925.4000, -83.359
 925.5000,-210.000
 925.6000, -78.934
 925.7000, -76.508
 925.8000, -83.348
 925.9000, -82.544
 926.0000,-210.000
 926.1000, -79.441
 926.2000, -78.042
 926.3000, -83.000
 926.4000,-210.000
 926.5000, -78.854
 926.6000, -77.733
 926.7000, -79.716
 926.8000, -79.997
 926.9000,-210.000
 927.0000, -78.669
 927.1000, -80.796
 927.2000,-210.000
 927.3000, -79.463
 927.4000, -79.539
 927.5000, -87.945
 927.6000, -78.916
 927.7000, -82.632
 927.8000,-210.000
 927.9000, -78.061
 928.0000, -83.025
 928.1000, -85.358
 928.2000, -78.720
 928.3000, -87.702
 928.4000,-210.000
 928.5000,-210.000
 928.6000, -82.367
 928.7000, -81.071
 928.8000,-210.000
 928.9000,-210.000
 929.0000, -75.841
 929.1000,-210.000
 929.2000, -86.404
 929.3000, -75.050
 929.4000, -76.055
 929.5000,-210.000
 929.6000,-210.000
 929.7000,-210.000
 929.8000,-210.000
 929.9000,-210.000
 930.0000,-210.000
 930.1000, -77.436
 930.2000, -75.416
 930.3000,-210.000
 930.4000, -80.117
 930.5000, -79.968
 930.6000, -76.033
 930.7000,-210.000
 930.8000,-210.000
 930.9000, -86.361
 931.0000, -79.710
 931.1000, -76.317
 931.2000,-210.000
 931.3000, -78.189
 931.4000,-210.000
 931.5000, -85.515
 931.6000,-210.000
 931.7000, -81.736
 931.8000, -80.801
 931.9000, -78.818
 932.0000, -82.900
 932.1000, -82.498
 932.2000,-210.000
 932.3000, -86.770
 932.4000, -77.651
 932.5000, -87.707
 932.6000, -83.218
 932.7000, -75.633
 932.8000, -84.052
 932.9000, -80.773
 933.0000,-210.000
 933.1000,-210.000
 933.2000, -73.935
 933.3000,-210.000
 933.4000,-210.000
 933.5000, -79.355
 933.6000, -79.786
 933.7000, -75.874
 933.8000, -84.332
 933.9000, -77.802
 934.0000,-210.000
 934.1000, -84.848
 934.2000,-210.000
 934.3000, -76.477
 934.4000, -77.431
 934.5000,-210.000
 934.6000, -79.904
 934.7000,-210.000
 934.8000, -77.772
 934.9000, -81.830
 935.0000, -79.670
 935.1000,-210.000
 935.2000, -76.790
 935.3000,-210.000
 935.4000, -89.045
 935.5000, -81.479
 935.6000,-210.000
 935.7000, -79.491
 935.8000, -87.201
 935.9000, -87.249
 936.0000, -78.729
 936.1000, -79.414
 936.2000, -76.106
 936.3000,-210.000
 936.4000, -76.086
 936.5000, -77.728
 936.6000,-210.000
 936.7000,-210.000
 936.8000, -80.768
 936.9000, -78.231
 937.0000, -75.560
 937.1000,-210.000
 937.2000,-210.000
 937.3000,-210.000
 937.4000, -79.120
 937.5000,-210.000
 937.6000, -87.940
 937.7000, -82.498
 937.8000, -77.012
 937.9000, -98.467
 938.0000, -79.431
 938.1000, -78.935
 938.2000,-210.000
 938.3000, -77.803
 938.4000, -77.507
 938.5000, -80.523
 938.6000, -75.153
 938.7000, -80.978
 938.8000, -77.401
 938.9000, -79.263
 939.0000, -78.426
 939.1000, -75.911
 939.2000, -75.580
 939.3000, -74.030
 939.4000,-210.000
 939.5000, -84.097
 939.6000, -80.359
 939.7000, -79.811
 939.8000,-210.000
 939.9000, -82.318
 940.0000,-210.000
 940.1000,-210.000
 940.2000,-210.000
 940.3000, -82.169
 940.4000, -77.109
 940.5000, -76.979
 940.6000,-210.000
 940.7000,-210.000
 940.8000,-210.000
 940.9000, -82.142
 941.0000, -82.541
 941.1000, -83.706
 941.2000, -79.577
 941.3000,-210.000
 941.4000, -78.959
 941.5000, -82.454
 941.6000, -77.662
 941.7000, -83.051
 941.8000, -79.425
 941.9000, -78.027
 942.0000,-210.000
 942.1000, -82.849
 942.2000,-210.000
 942.3000, -83.152
 942.4000, -89.118
 942.5000, -80.207
 942.6000, -89.229
 942.7000, -81.545
 942.8000, -79.102
 942.9000,-210.000
 943.0000,-210.000
 943.1000, -80.549
 943.2000, -80.923
 943.3000,-210.000
 943.4000, -78.204
 943.5000, -81.252
 943.6000,-210.000
 943.7000, -81.945
 943.8000,-210.000
 943.9000, -80.645
 944.0000, -87.328
 944.1000, -79.581
 944.2000,-210.000
 944.3000, -80.834
 944.4000, -77.937
 944.5000, -86.150
 944.6000, -82.700
 944.7000,-210.000
 944.8000, -75.620
 944.9000,-210.000
 945.0000, -82.685
 945.1000, -78.497
 945.2000, -79.674
 945.3000, -80.649
 945.4000, -77.513
 945.5000, -80.715
 945.6000, -76.653
 945.7000, -76.149
 945.8000, -75.090
 945.9000, -73.126
 946.0000, -75.722
 946.1000, -74.752
 946.2000, -73.875
 946.3000, -74.903
 946.4000, -75.247
 946.5000, -74.773
 946.6000, -74.573
 946.7000, -72.776
 946.8000,-210.000
 946.9000, -82.107
 947.0000, -77.557
 947.1000, -80.920
 947.2000, -79.721
 947.3000, -83.443
 947.4000, -77.911
 947.5000, -77.357
 947.6000, -79.896
 947.7000, -75.627
 947.8000,-210.000
 947.9000, -83.820
 948.0000, -79.640
 948.1000,-210.000
 948.2000, -81.327
 948.3000, -87.802
 948.4000, -79.868
 948.5000, -87.792
 948.6000, -79.153
 948.7000, -78.390
 948.8000,-210.000
 948.9000,-210.000
 949.0000, -84.730
 949.1000,-210.000
 949.2000, -79.063
 949.3000, -80.937
 949.4000, -82.596
 949.5000, -78.341
 949.6000, -86.077
 949.7000, -78.931
 949.8000, -79.321
 949.9000,-210.000
 950.0000, -76.629
 950.1000,-210.000
 950.2000,-210.000
 950.3000, -81.557
 950.4000, -96.356
 950.5000, -84.984
 950.6000,-210.000
 950.7000, -81.390
 950.8000, -84.014
 950.9000, -81.695
 951.0000, -90.485
 951.1000,-210.000
 951.2000, -75.930
 951.3000, -84.071
 951.4000, -81.711
 951.5000, -89.221
 951.6000,-210.000
 951.7000, -81.904
 951.8000,-210.000
 951.9000, -79.314
 952.0000, -89.508
 952.1000, -82.242
 952.2000, -83.427
 952.3000, -80.952
 952.4000,-210.000
 952.5000, -86.929
 952.6000, -82.335
 952.7000,-210.000
 952.8000, -79.345
 952.9000, -86.099
 953.0000, -79.595
 953.1000, -83.106
 953.2000, -86.282
 953.3000, -80.057
 953.4000, -80.046
 953.5000, -87.598
 953.6000, -85.945
 953.7000, -79.283
 953.8000, -90.438
 953.9000, -81.644
 954.0000,-210.000
 954.1000, -79.412
 954.2000, -80.478
 954.3000, -86.474
 954.4000,-210.000
 954.5000, -84.956
 954.6000, -86.068
 954.7000, -81.360
 954.8000, -83.599
 954.9000, -79.602
 955.0000,-210.000
 955.1000,-210.000
 955.2000, -87.869
 955.3000, -83.300
 955.4000, -91.595
 955.5000, -79.936
 955.6000, -86.419
 955.7000,-210.000
 955.8000, -80.669
 955.9000, -80.706
 956.0000, -80.315
 956.1000, -93.788
 956.2000, -80.551
 956.3000,-210.000
 956.4000,-210.000
 956.5000, -82.943
 956.6000,-210.000
 956.7000, -83.612
 956.8000, -82.427
 956.9000,-210.000
 957.0000, -80.679
 957.1000, -86.214
 957.2000, -81.541
 957.3000,-210.000
 957.4000, -83.921
 957.5000, -83.006
 957.6000, -78.389
 957.7000,-210.000
 957.8000, -81.632
 957.9000, -83.991
 958.0000, -87.402
 958.1000, -82.955
 958.2000, -81.261
 958.3000,-210.000
 958.4000, -79.664
 958.5000, -85.268
 958.6000, -82.664
 958.7000, -86.793
 958.8000,-210.000
 958.9000, -87.646
 959.0000, -86.182
 959.1000, -81.368
 959.2000,-210.000
 959.3000, -80.768
 959.4000,-210.000
 959.5000, -92.514
 959.6000,-210.000
 959.7000, -82.572
 959.8000, -82.226
 959.9000, -85.580
 960.0000, -86.408
 960.1000, -86.498
 960.2000, -82.332
 960.3000,-210.000
 960.4000, -80.273
 960.5000,-210.000
 960.6000, -85.406
 960.7000, -87.973
 960.8000, -83.682
 960.9000, -84.859
 961.0000,-210.000
 961.1000, -80.455
 961.2000, -82.948
 961.3000, -87.859
 961.4000, -82.645
 961.5000, -82.397
 961.6000, -85.190
 961.7000, -79.726
 961.8000, -87.712
 961.9000, -88.929
 962.0000, -81.498
 962.1000,-210.000
 962.2000, -83.606
 962.3000,-210.000
 962.4000, -80.003
 962.5000, -91.166
 962.6000,-210.000
 962.7000, -82.948
 962.8000, -84.226
 962.9000, -84.169
 963.0000, -79.674
 963.1000,-210.000
 963.2000, -83.036
 963.3000,-210.000
 963.4000, -81.307
 963.5000, -80.537
 963.6000,-210.000
 963.7000, -86.003
 963.8000,-210.000
 963.9000, -80.060
 964.0000, -84.673
 964.1000,-210.000
 964.2000, -81.215
 964.3000, -85.330
 964.4000, -81.152
 964.5000, -87.855
 964.6000, -78.545
 964.7000, -83.272
 964.8000, -87.638
 964.9000,-210.000
 965.0000, -80.354
 965.1000, -84.033
 965.2000, -81.592
 965.3000, -86.167
 965.4000, -82.147
 965.5000,-210.000
 965.6000, -89.544
 965.7000, -86.127
 965.8000, -85.379
 965.9000,-210.000
 966.0000, -78.941
 966.1000,-210.000
 966.2000, -81.995
 966.3000, -85.158
 966.4000,-210.000
 966.5000,-210.000
 966.6000,-210.000
 966.7000, -80.692
 966.8000, -95.614
 966.9000, -82.125
 967.0000, -79.044
 967.1000, -84.973
 967.2000, -80.041
 967.3000,-210.000
 967.4000, -78.713
 967.5000, -81.488
 967.6000,-210.000
 967.7000, -84.717
 967.8000, -82.534
 967.9000, -80.344
 968.0000, -90.310
 968.1000,-210.000
 968.2000,-210.000
 968.3000, -78.805
 968.4000, -83.341
 968.5000, -81.065
 968.6000,-210.000
 968.7000, -80.651
 968.8000, -81.041
 968.9000, -94.747
 969.0000,-210.000
 969.1000, -79.322
 969.2000, -83.095
 969.3000, -81.110
 969.4000,-210.000
 969.5000, -81.797
 969.6000,-210.000
 969.7000, -94.756
 969.8000, -81.932
 969.9000, -84.517
 970.0000, -83.378
 970.1000, -81.417
 970.2000, -83.108
 970.3000, -91.959
 970.4000, -83.742
 970.5000,-210.000
 970.6000, -79.659
 970.7000, -81.305
 970.8000,-210.000
 970.9000, -89.217
 971.0000, -83.985
 971.1000, -80.464
 971.2000, -81.116
 971.3000,-210.000
 971.4000, -77.371
 971.5000, -93.218
 971.6000, -79.810
 971.7000, -81.358
 971.8000, -87.743
 971.9000, -82.991
 972.0000, -80.647
 972.1000, -85.040
 972.2000,-210.000
 972.3000, -84.592
 972.4000, -81.217
 972.5000, -90.732
 972.6000, -90.064
 972.7000, -83.026
 972.8000, -83.465
 972.9000,-210.000
 973.0000,-210.000
 973.1000, -95.578
 973.2000, -90.416
 973.3000,-210.000
 973.4000, -80.009
 973.5000, -80.292
 973.6000, -83.565
 973.7000, -79.505
 973.8000,-210.000
 973.9000, -92.179
 974.0000, -79.052
 974.1000, -85.170
 974.2000, -78.747
 974.3000, -75.480
 974.4000, -79.973
 974.5000,-210.000
 974.6000, -80.799
 974.7000,-210.000
 974.8000,-210.000
 974.9000,-210.000
 975.0000,-210.000
 975.1000, -80.377
 975.2000,-210.000
 975.3000, -82.176
 975.4000, -79.698
 975.5000,-210.000
 975.6000, -85.021
 975.7000, -87.762
 975.8000, -92.276
 975.9000, -82.191
 976.0000, -82.547
 976.1000, -82.288
 976.2000, -80.831
 976.3000,-210.000
 976.4000, -81.200
 976.5000, -83.998
 976.6000,-210.000
 976.7000, -83.886
 976.8000,-210.000
 976.9000, -81.917
 977.0000, -83.556
 977.1000, -83.543
 977.2000, -81.759
 977.3000,-210.000
 977.4000, -82.310
 977.5000, -85.077
 977.6000, -81.943
 977.7000, -82.830
 977.8000, -80.803
 977.9000, -78.835
 978.0000,-210.000
 978.1000, -80.956
 978.2000,-210.000
 978.3000, -78.920
 978.4000, -91.681
 978.5000, -78.767
 978.6000, -80.156
 978.7000,-210.000
 978.8000, -85.849
 978.9000, -77.509
 979.0000, -83.252
 979.1000,-210.000
 979.2000, -84.904
 979.3000, -80.324
 979.4000,-210.000
 979.5000, -92.212
 979.6000, -90.536
 979.7000, -81.140
 979.8000,-210.000
 979.9000, -81.068
 980.0000, -80.227
 980.1000, -78.266
 980.2000, -84.141
 980.3000, -80.315
 980.4000,-210.000
 980.5000,-210.000
 980.6000, -77.265
 980.7000, -81.192
 980.8000, -79.647
 980.9000, -89.505
 981.0000,-210.000
 981.1000,-210.000
 981.2000, -86.284
 981.3000, -81.801
 981.4000, -83.061
 981.5000, -81.641
 981.6000, -81.254
 981.7000, -85.082
 981.8000, -78.922
 981.9000, -79.287
 982.0000,-210.000
 982.1000, -84.232
 982.2000, -85.987
 982.3000, -84.518
 982.4000, -82.189
 982.5000, -86.680
 982.6000, -80.904
 982.7000, -76.919
 982.8000,-210.000
 982.9000,-210.000
 983.0000, -88.703
 983.1000, -81.942
 983.2000,-210.000
 983.3000, -80.062
 983.4000, -78.461
 983.5000,-210.000
 983.6000,-210.000
 983.7000, -85.443
 983.8000, -81.978
 983.9000, -85.358
 984.0000, -78.525
 984.1000,-210.000
 984.2000, -80.110
 984.3000,-210.000
 984.4000,-210.000
 984.5000, -79.401
 984.6000, -81.792
 984.7000,-210.000
 984.8000, -80.795
 984.9000,-210.000
 985.0000, -91.373
 985.1000,-210.000
 985.2000, -80.379
 985.3000, -94.442
 985.4000, -83.865
 985.5000, -86.907
 985.6000, -83.436
 985.7000, -92.270
 985.8000, -91.220
 985.9000, -82.469
 986.0000, -83.313
 986.1000,-210.000
 986.2000, -84.423
 986.3000, -98.003
 986.4000, -81.594
 986.5000,-210.000
 986.6000, -84.931
 986.7000, -81.379
 986.8000, -78.485
 986.9000,-210.000
 987.0000,-210.000
 987.1000, -78.946
 987.2000, -86.653
 987.3000, -80.835
 987.4000,-210.000
 987.5000, -80.753
 987.6000, -82.840
 987.7000,-210.000
 987.8000, -81.295
 987.9000,-210.000
 988.0000, -78.322
 988.1000,-210.000
 988.2000, -89.970
 988.3000, -84.737
 988.4000, -83.106
 988.5000,-210.000
 988.6000, -83.257
 988.7000, -82.125
 988.8000, -84.754
 988.9000,-210.000
 989.0000, -93.314
 989.1000, -81.478
 989.2000, -89.045
 989.3000,-210.000
 989.4000, -83.522
 989.5000, -94.328
 989.6000, -85.901
 989.7000, -84.270
 989.8000, -84.241
 989.9000, -96.741
 990.0000, -81.648
 990.1000, -82.133
 990.2000, -82.625
 990.3000, -86.712
 990.4000, -82.435
 990.5000,-210.000
 990.6000, -99.360
 990.7000, -81.282
 990.8000, -85.017
 990.9000, -77.871
 991.0000, -93.080
 991.1000,-210.000
 991.2000,-210.000
 991.3000, -80.418
 991.4000,-210.000
 991.5000, -85.503
 991.6000, -83.417
 991.7000, -84.776
 991.8000, -88.552
 991.9000, -83.362
 992.0000, -83.733
 992.1000, -87.056
 992.2000, -85.183
 992.3000,-210.000
 992.4000, -99.836
 992.5000, -82.053
 992.6000, -80.658
 992.7000, -80.896
 992.8000, -94.174
 992.9000,-210.000
 993.0000, -81.868
 993.1000, -80.442
 993.2000, -78.037
 993.3000,-210.000
 993.4000, -94.116
 993.5000, -78.683
 993.6000,-210.000
 993.7000, -79.674
 993.8000, -82.183
 993.9000,-210.000
 994.0000, -81.581
 994.1000, -82.987
 994.2000,-210.000
 994.3000, -78.405
 994.4000,-210.000
 994.5000, -78.479
 994.6000,-210.000
 994.7000, -83.204
 994.8000, -77.379
 994.9000, -83.493
 995.0000,-210.000
 995.1000, -83.178
 995.2000,-210.000
 995.3000, -94.726
 995.4000, -87.288
 995.5000, -81.595
 995.6000, -89.022
 995.7000, -81.766
 995.8000, -84.375
 995.9000,-210.000
 996.0000, -82.210
 996.1000,-210.000
 996.2000, -82.710
 996.3000,-210.000
 996.4000, -83.302
 996.5000, -76.697
 996.6000,-210.000
 996.7000, -85.633
 996.8000, -90.003
 996.9000, -84.235
 997.0000, -83.838
 997.1000, -84.772
 997.2000, -79.201
 997.3000, -83.456
 997.4000,-210.000
 997.5000, -82.287
 997.6000, -77.970
 997.7000,-210.000
 997.8000, -85.158
 997.9000,-210.000
 998.0000, -84.245
 998.1000, -80.430
 998.2000,-210.000
 998.3000, -86.321
 998.4000, -87.667
 998.5000, -84.242
 998.6000, -85.556
 998.7000, -82.959
 998.8000, -80.247
 998.9000, -82.583
 999.0000,-210.000
 999.1000,-210.000
 999.2000, -80.793
 999.3000,-210.000
 999.4000, -79.932
 999.5000,-210.000
 999.6000, -85.612
 999.7000, -77.339
 999.8000,-210.000
 999.9000, -80.667
1000.0000,-210.000
1000.1000, -83.246
1000.2000, -82.577
1000.3000, -81.367
1000.4000, -84.346
1000.5000, -81.281
1000.6000, -87.685
1000.7000,-210.000
1000.8000, -84.468
1000.9000,-104.585
1001.0000, -81.418
1001.1000, -80.270
1001.2000, -94.514
1001.3000, -83.277
1001.4000, -86.890
1001.5000, -87.252
1001.6000, -82.176
1001.7000, -90.756
1001.8000, -80.463
1001.9000, -84.993
1002.0000,-210.000
1002.1000,-210.000
1002.2000, -81.503
1002.3000, -79.150
1002.4000, -80.750
1002.5000, -85.895
1002.6000, -87.972
1002.7000,-210.000
1002.8000, -80.063
1002.9000, -84.719
1003.0000, -94.075
1003.1000, -84.302
1003.2000, -80.862
1003.3000, -79.162
1003.4000,-210.000
1003.5000,-210.000
1003.6000, -84.632
1003.7000, -81.769
1003.8000, -81.162
1003.9000, -83.826
1004.0000, -81.213
1004.1000, -88.473
1004.2000, -80.773
1004.3000, -91.612
1004.4000, -85.370
1004.5000, -85.965
1004.6000, -79.980
1004.7000, -82.850
1004.8000, -83.210
1004.9000, -84.958
1005.0000, -82.269
1005.1000,-210.000
1005.2000, -80.832
1005.3000, -84.430
1005.4000, -80.267
1005.5000,-210.000
1005.6000, -97.592
1005.7000, -80.624
1005.8000, -85.165
1005.9000, -82.595
1006.0000,-210.000
1006.1000, -81.625
1006.2000, -84.440
1006.3000, -81.632
1006.4000, -86.858
1006.5000, -91.053
1006.6000, -82.837
1006.7000, -83.848
1006.8000, -80.305
1006.9000, -95.655
1007.0000, -82.065
1007.1000, -87.693
1007.2000, -80.378
1007.3000, -95.879
1007.4000, -85.095
1007.5000, -87.089
1007.6000, -86.805
1007.7000, -83.738
1007.8000, -80.497
1007.9000, -82.435
1008.0000,-210.000
1008.1000, -85.151
1008.2000, -80.869
1008.3000, -83.973
1008.4000, -78.263
1008.5000, -82.721
1008.6000,-210.000
1008.7000, -76.781
1008.8000,-210.000
1008.9000,-210.000
1009.0000, -86.076
1009.1000, -78.100
1009.2000, -81.849
1009.3000, -81.213
1009.4000, -85.461
1009.5000, -83.518
1009.6000, -80.834
1009.7000, -82.317
1009.8000, -84.720
1009.9000, -84.517
1010.0000, -83.550
1010.1000,-210.000
1010.2000, -81.247
1010.3000, -83.448
1010.4000, -86.893
1010.5000,-210.000
1010.6000, -79.836
1010.7000, -83.149
1010.8000, -87.470
1010.9000, -83.845
1011.0000, -82.846
1011.1000, -81.381
1011.2000, -82.588
1011.3000, -81.578
1011.4000, -83.388
1011.5000, -83.553
1011.6000, -81.505
1011.7000, -81.320
1011.8000, -80.633
1011.9000, -93.068
1012.0000, -84.136
1012.1000, -81.464
1012.2000, -83.268
1012.3000, -91.138
1012.4000, -81.882
1012.5000, -82.379
1012.6000, -85.416
1012.7000, -79.950
1012.8000, -86.230
1012.9000, -81.287
1013.0000, -84.421
1013.1000, -82.368
1013.2000, -85.730
1013.3000, -81.830
1013.4000, -80.879
1013.5000, -81.127
1013.6000,-210.000
1013.7000, -81.053
1013.8000, -83.932
1013.9000, -83.219
1014.0000, -81.918
1014.1000, -82.373
1014.2000, -82.616
1014.3000, -83.155
1014.4000, -81.508
1014.5000, -81.740
1014.6000, -85.089
1014.7000, -80.986
1014.8000, -80.746
1014.9000, -83.282
1015.0000, -81.093
1015.1000, -81.236
1015.2000, -79.852
1015.3000, -80.540
1015.4000,-210.000
1015.5000, -84.654
1015.6000, -80.838
1015.7000, -80.680
1015.8000, -83.012
1015.9000, -80.106
1016.0000, -83.445
1016.1000, -91.746
1016.2000, -81.758
1016.3000,-210.000
1016.4000, -83.094
1016.5000, -81.214
1016.6000, -79.151
1016.7000, -84.406
1016.8000, -80.227
1016.9000, -84.422
1017.0000, -81.678
1017.1000, -80.868
1017.2000, -80.917
1017.3000, -86.241
1017.4000, -84.575
1017.5000, -79.893
1017.6000, -85.944
1017.7000, -79.623
1017.8000, -89.152
1017.9000, -80.947
1018.0000, -80.134
1018.1000,-210.000
1018.2000, -81.537
1018.3000,-210.000
1018.4000, -82.154
1018.5000, -89.369
1018.6000, -80.176
1018.7000, -87.801
1018.8000, -86.308
1018.9000, -78.910
1019.0000, -80.030
1019.1000,-210.000
1019.2000, -79.567
1019.3000, -82.312
1019.4000,-210.000
1019.5000, -83.287
1019.6000, -80.598
1019.7000, -82.541
1019.8000, -82.346
1019.9000, -80.682
1020.0000, -85.714
1020.1000, -79.911
1020.2000, -79.438
1020.3000, -87.097
1020.4000,-210.000
1020.5000, -92.310
1020.6000, -82.159
1020.7000, -78.377
1020.8000, -83.667
1020.9000, -78.536
1021.0000, -81.535
1021.1000, -83.637
1021.2000, -99.391
1021.3000, -86.995
1021.4000, -80.977
1021.5000, -83.862
1021.6000, -83.889
1021.7000, -79.810
1021.8000, -84.590
1021.9000, -80.410
1022.0000, -81.519
1022.1000, -93.793
1022.2000, -81.823
1022.3000, -86.908
1022.4000, -82.853
1022.5000, -83.070
1022.6000, -77.754
1022.7000, -84.800
1022.8000, -86.217
1022.9000, -83.669
1023.0000, -83.663
1023.1000, -87.585
1023.2000, -80.701
1023.3000, -82.029
1023.4000, -82.783
1023.5000, -80.649
1023.6000, -78.922
1023.7000, -80.130
1023.8000, -81.746
1023.9000, -83.463
1024.0000, -85.899
1024.1000,-210.000
1024.2000, -80.919
1024.3000, -82.039
1024.4000, -81.152
1024.5000, -81.423
1024.6000, -80.873
1024.7000, -85.392
1024.8000, -83.069
1024.9000, -80.428
1025.0000, -81.862
1025.1000, -86.834
1025.2000, -81.600
1025.3000, -82.248
1025.4000, -81.675
1025.5000, -78.768
1025.6000,-210.000
1025.7000,-210.000
1025.8000, -82.691
1025.9000, -80.052
1026.0000, -85.058
1026.1000, -83.962
1026.2000, -84.467
1026.3000, -80.467
1026.4000, -81.582
1026.5000, -81.657
1026.6000, -83.185
1026.7000, -83.065
1026.8000, -79.147
1026.9000, -82.767
1027.0000, -80.811
1027.1000, -83.213
1027.2000, -78.963
1027.3000, -96.444
1027.4000, -83.781
1027.5000, -80.745
1027.6000, -82.473
1027.7000, -77.706
1027.8000, -82.970
1027.9000,-210.000
1028.0000, -79.872
1028.1000, -86.113
1028.2000, -80.048
1028.3000, -91.297
1028.4000, -79.628
1028.5000, -78.849
1028.6000, -83.622
1028.7000, -94.809
1028.8000, -80.043
1028.9000, -81.399
1029.0000, -81.048
1029.1000, -82.334
1029.2000, -85.208
1029.3000, -81.837
1029.4000, -82.823
1029.5000, -79.700
1029.6000,-210.000
1029.7000, -86.846
1029.8000, -80.398
1029.9000, -81.690
1030.0000, -81.315
1030.1000, -82.226
1030.2000, -85.155
1030.3000, -85.134
1030.4000, -85.524
1030.5000, -80.165
1030.6000, -79.367
1030.7000, -82.352
1030.8000, -81.062
1030.9000, -79.935
1031.0000,-210.000
1031.1000,-210.000
1031.2000, -78.837
1031.3000, -81.802
1031.4000, -82.395
1031.5000, -82.010
1031.6000, -84.215
1031.7000, -87.355
1031.8000, -79.273
1031.9000, -81.900
1032.0000, -81.910
1032.1000, -83.282
1032.2000, -82.152
1032.3000, -86.934
1032.4000, -81.544
1032.5000, -82.937
1032.6000, -81.158
1032.7000, -80.745
1032.8000, -89.190
1032.9000, -80.809
1033.0000, -82.058
1033.1000, -81.507
1033.2000, -83.308
1033.3000, -81.355
1033.4000, -81.577
1033.5000, -84.876
1033.6000, -84.048
1033.7000, -81.678
1033.8000, -84.079
1033.9000, -84.556
1034.0000, -79.413
1034.1000, -85.317
1034.2000, -81.888
1034.3000, -79.739
1034.4000, -82.738
1034.5000, -82.039
1034.6000, -81.648
1034.7000, -79.381
1034.8000, -84.043
1034.9000, -82.598
1035.0000, -81.885
1035.1000, -81.944
1035.2000, -81.041
1035.3000, -82.644
1035.4000, -80.294
1035.5000, -78.070
1035.6000, -81.795
1035.7000, -80.873
1035.8000, -82.848
1035.9000, -81.048
1036.0000, -82.419
1036.1000,-210.000
1036.2000, -86.907
1036.3000, -80.380
1036.4000, -82.117
1036.5000, -83.817
1036.6000, -84.827
1036.7000, -80.718
1036.8000, -79.047
1036.9000,-210.000
1037.0000, -80.277
1037.1000, -81.949
1037.2000, -82.696
1037.3000, -79.322
1037.4000, -79.574
1037.5000, -81.233
1037.6000, -87.878
1037.7000, -86.285
1037.8000, -81.230
1037.9000, -79.870
1038.0000, -83.698
1038.1000, -79.956
1038.2000, -79.403
1038.3000, -82.339
1038.4000,-210.000
1038.5000, -83.917
1038.6000, -80.902
1038.7000, -79.352
1038.8000, -85.964
1038.9000, -82.813
1039.0000, -80.316
1039.1000, -93.360
1039.2000, -82.004
1039.3000, -81.984
1039.4000, -83.887
1039.5000, -83.266
1039.6000, -77.379
1039.7000, -82.223
1039.8000, -84.597
1039.9000, -81.176
1040.0000, -82.631
1040.1000, -77.307
1040.2000, -85.615
1040.3000, -87.003
1040.4000, -82.192
1040.5000, -91.191
1040.6000, -80.697
1040.7000, -80.510
1040.8000, -83.036
1040.9000, -80.967
1041.0000, -83.099
1041.1000, -78.686
1041.2000, -80.375
1041.3000,-210.000
1041.4000,-210.000
1041.5000, -80.963
1041.6000, -81.339
1041.7000, -78.746
1041.8000, -79.481
1041.9000, -87.672
1042.0000, -83.473
1042.1000, -83.849
1042.2000, -81.775
1042.3000, -83.462
1042.4000, -83.656
1042.5000, -82.597
1042.6000, -81.722
1042.7000, -77.025
1042.8000, -85.195
1042.9000,-210.000
1043.0000, -77.334
1043.1000, -81.963
1043.2000,-210.000
1043.3000, -78.303
1043.4000, -86.254
1043.5000, -84.033
1043.6000, -80.161
1043.7000, -78.924
1043.8000, -78.784
1043.9000,-210.000
1044.0000, -86.395
1044.1000, -82.521
1044.2000, -80.643
1044.3000,-102.522
1044.4000, -78.426
1044.5000, -80.884
1044.6000, -81.289
1044.7000, -82.588
1044.8000, -92.711
1044.9000, -80.408
1045.0000, -81.574
1045.1000, -82.074
1045.2000, -80.071
1045.3000, -81.013
1045.4000, -82.912
1045.5000, -85.100
1045.6000, -80.366
1045.7000, -82.887
1045.8000, -80.172
1045.9000, -89.141
1046.0000, -81.317
1046.1000, -81.301
1046.2000, -79.258
1046.3000, -79.120
1046.4000, -80.818
1046.5000, -79.493
1046.6000, -91.111
1046.7000, -90.315
1046.8000, -78.284
1046.9000, -84.725
1047.0000, -78.317
1047.1000, -79.071
1047.2000,-210.000
1047.3000, -77.223
1047.4000, -79.298
1047.5000, -78.362
1047.6000, -80.969
1047.7000,-210.000
1047.8000, -78.266
1047.9000, -90.683
1048.0000, -84.982
1048.1000, -78.496
1048.2000, -78.889
1048.3000, -80.060
1048.4000, -88.595
1048.5000, -77.472
1048.6000, -82.241
1048.7000, -78.286
1048.8000, -83.702
1048.9000, -81.314
1049.0000, -78.318
1049.1000, -79.379
1049.2000, -77.696
1049.3000, -79.406
1049.4000, -78.243
1049.5000, -82.858
1049.6000, -78.802
1049.7000, -79.169
1049.8000, -79.448
1049.9000, -80.244
1050.0000, -79.981
1050.1000, -80.227
1050.2000, -80.293
1050.3000, -83.176
1050.4000, -80.270
1050.5000, -80.028
1050.6000, -79.892
1050.7000, -79.563
1050.8000, -80.465
1050.9000, -79.379
1051.0000, -80.861
1051.1000, -80.474
1051.2000, -78.728
1051.3000, -80.027
1051.4000, -77.987
1051.5000, -78.830
1051.6000, -77.594
1051.7000, -80.242
1051.8000, -77.279
1051.9000, -76.030
1052.0000, -76.705
1052.1000, -77.151
1052.2000, -74.706
1052.3000, -73.265
1052.4000, -74.057
1052.5000, -74.189
1052.6000, -73.974
1052.7000, -73.481
1052.8000, -73.119
1052.9000, -74.848
1053.0000, -75.856
1053.1000, -76.517
1053.2000, -76.542
1053.3000, -77.551
1053.4000, -77.276
1053.5000, -78.099
1053.6000, -78.527
1053.7000, -79.618
1053.8000, -77.104
1053.9000, -78.896
1054.0000, -78.283
1054.1000, -77.993
1054.2000, -76.426
1054.3000, -74.907
1054.4000, -71.808
1054.5000, -64.112
1054.6000, -57.289
1054.7000, -53.544
1054.8000, -51.164
1054.9000, -49.896
1055.0000, -49.546
1055.1000, -49.721
1055.2000, -49.606
1055.3000, -50.106
1055.4000, -51.310
1055.5000, -53.519
1055.6000, -59.247
1055.7000, -64.229
1055.8000, -68.560
1055.9000, -72.016
1056.0000, -74.590
1056.1000, -76.420
1056.2000, -77.486
1056.3000, -78.621
1056.4000, -78.359
1056.5000, -77.864
1056.6000, -77.309
1056.7000, -77.672
1056.8000, -78.565
1056.9000, -77.720
1057.0000, -77.325
1057.1000, -78.623
1057.2000, -76.181
1057.3000, -77.339
1057.4000, -76.690
1057.5000, -78.745
1057.6000, -78.187
1057.7000, -75.450
1057.8000, -76.746
1057.9000, -77.985
1058.0000, -77.753
1058.1000, -76.827
1058.2000, -76.562
1058.3000, -76.000
1058.4000, -77.550
1058.5000, -77.377
1058.6000, -75.525
1058.7000, -75.694
1058.8000, -77.396
1058.9000, -75.735
1059.0000, -76.174
1059.1000, -77.494
1059.2000, -75.326
1059.3000, -75.053
1059.4000, -75.380
1059.5000, -75.549
1059.6000, -74.904
1059.7000, -75.154
1059.8000, -75.179
1059.9000, -74.211
1060.0000, -74.208
1060.1000, -73.657
1060.2000, -73.793
1060.3000, -74.474
1060.4000, -73.701
1060.5000, -73.025
1060.6000, -73.107
1060.7000, -73.248
1060.8000, -72.325
1060.9000, -72.136
1061.0000, -71.830
1061.1000, -71.418
1061.2000, -71.019
1061.3000, -70.720
1061.4000, -70.666
1061.5000, -70.710
1061.6000, -68.747
1061.7000, -67.944
1061.8000, -67.723
1061.9000, -67.773
1062.0000, -67.361
1062.1000, -66.977
1062.2000, -66.773
1062.3000, -67.030
1062.4000, -67.596
1062.5000, -67.195
1062.6000, -66.977
1062.7000, -66.816
1062.8000, -66.408
1062.9000, -66.000
1063.0000, -65.478
1063.1000, -65.087
1063.2000, -64.508
1063.3000, -63.957
1063.4000, -63.270
1063.5000, -62.475
1063.6000, -61.595
1063.7000, -60.650
1063.8000, -59.558
1063.9000, -58.249
1064.0000, -53.787
1064.1000, -37.377
1064.2000, -22.052
1064.3000, -16.534
1064.4000, -12.226
1064.5000,  -9.693
1064.6000,  -9.424
1064.7000,  -9.312
1064.8000,  -9.309
1064.9000,  -9.424
1065.0000,  -9.866
1065.1000, -11.234
1065.2000, -17.812
1065.3000, -22.355
1065.4000, -33.557
1065.5000, -46.398
1065.6000, -55.192
1065.7000, -58.702
1065.8000, -60.340
1065.9000, -61.410
1066.0000, -62.306
1066.1000, -63.144
1066.2000, -63.818
1066.3000, -64.368
1066.4000, -64.854
1066.5000, -65.395
1066.6000, -65.894
1066.7000, -66.350
1066.8000, -66.977
1066.9000, -67.438
1067.0000, -67.885
1067.1000, -68.333
1067.2000, -68.540
1067.3000, -68.906
1067.4000, -69.286
1067.5000, -69.568
1067.6000, -69.574
1067.7000, -69.813
1067.8000, -70.019
1067.9000, -69.877
1068.0000, -70.209
1068.1000, -70.240
1068.2000, -70.741
1068.3000, -71.069
1068.4000, -70.254
1068.5000, -70.605
1068.6000, -70.708
1068.7000, -70.702
1068.8000, -70.814
1068.9000, -71.093
1069.0000, -70.616
1069.1000, -71.293
1069.2000, -70.714
1069.3000, -71.394
1069.4000, -71.228
1069.5000, -70.975
1069.6000, -71.389
1069.7000, -71.072
1069.8000, -70.890
1069.9000, -71.159
1070.0000, -71.204
1070.1000, -71.152
1070.2000, -71.293
1070.3000, -71.006
1070.4000, -71.384
1070.5000, -71.045
1070.6000, -70.692
1070.7000, -70.588
1070.8000, -71.398
1070.9000, -70.563
1071.0000, -70.758
1071.1000, -70.638
1071.2000, -70.451
1071.3000, -70.242
1071.4000, -70.342
1071.5000, -70.221
1071.6000, -70.081
1071.7000, -69.886
1071.8000, -70.079
1071.9000, -69.661
1072.0000, -69.629
1072.1000, -69.494
1072.2000, -69.301
1072.3000, -69.112
1072.4000, -69.001
1072.5000, -68.742
1072.6000, -68.685
1072.7000, -68.534
1072.8000, -68.255
1072.9000, -68.245
1073.0000, -67.849
1073.1000, -67.583
1073.2000, -67.193
1073.3000, -67.002
1073.4000, -66.446
1073.5000, -65.820
1073.6000, -64.875
1073.7000, -62.972
1073.8000, -60.560
1073.9000, -56.852
1074.0000, -51.619
1074.1000, -45.144
1074.2000, -40.925
1074.3000, -34.653
1074.4000, -30.199
1074.5000, -27.536
1074.6000, -26.822
1074.7000, -26.535
1074.8000, -26.624
1074.9000, -26.617
1075.0000, -27.035
1075.1000, -28.851
1075.2000, -31.942
1075.3000, -37.699
1075.4000, -44.471
1075.5000, -49.676
1075.6000, -52.830
1075.7000, -56.711
1075.8000, -60.632
1075.9000, -63.187
1076.0000, -65.188
1076.1000, -66.114
1076.2000, -66.440
1076.3000, -66.578
1076.4000, -66.786
1076.5000, -66.709
1076.6000, -66.665
1076.7000, -66.543
1076.8000, -66.696
1076.9000, -66.292
1077.0000, -66.288
1077.1000, -66.137
1077.2000, -66.048
1077.3000, -65.818
1077.4000, -65.893
1077.5000, -65.919
1077.6000, -66.046
1077.7000, -65.932
1077.8000, -66.065
1077.9000, -66.107
1078.0000, -66.052
1078.1000, -66.049
1078.2000, -65.845
1078.3000, -65.958
1078.4000, -65.943
1078.5000, -65.898
1078.6000, -65.785
1078.7000, -65.864
1078.8000, -65.942
1078.9000, -65.870
1079.0000, -65.982
1079.1000, -66.002
1079.2000, -66.012
1079.3000, -66.006
1079.4000, -66.014
1079.5000, -66.058
1079.6000, -66.048
1079.7000, -65.978
1079.8000, -66.001
1079.9000, -66.081
1080.0000, -66.126
1080.1000, -66.011
1080.2000, -65.891
1080.3000, -65.936
1080.4000, -65.950
1080.5000, -65.943
1080.6000, -65.860
1080.7000, -65.801
1080.8000, -65.880
1080.9000, -65.856
1081.0000, -65.824
1081.1000, -65.811
1081.2000, -65.831
1081.3000, -65.711
1081.4000, -65.801
1081.5000, -65.782
1081.6000, -65.555
1081.7000, -65.809
1081.8000, -65.766
1081.9000, -65.585
1082.0000, -65.546
1082.1000, -65.769
1082.2000, -65.653
1082.3000, -65.698
1082.4000, -65.725
1082.5000, -65.651
1082.6000, -65.484
1082.7000, -65.703
1082.8000, -65.585
1082.9000, -65.652
1083.0000, -65.591
1083.1000, -65.517
1083.2000, -65.472
1083.3000, -65.611
1083.4000, -65.562
1083.5000, -65.444
1083.6000, -65.477
1083.7000, -65.511
1083.8000, -65.456
1083.9000, -65.400
1084.0000, -65.276
1084.1000, -65.175
1084.2000, -65.241
1084.3000, -64.854
1084.4000, -64.350
1084.5000, -64.004
1084.6000, -63.325
1084.7000, -63.173
1084.8000, -63.237
1084.9000, -63.185
1085.0000, -63.409
1085.1000, -63.545
1085.2000, -64.054
1085.3000, -64.492
1085.4000, -64.696
1085.5000, -64.752
1085.6000, -64.759
1085.7000, -64.667
1085.8000, -64.645
1085.9000, -64.632
1086.0000, -64.517
1086.1000, -64.476
1086.2000, -64.379
1086.3000, -64.560
1086.4000, -64.321
1086.5000, -64.242
1086.6000, -64.315
1086.7000, -64.273
1086.8000, -64.183
1086.9000, -64.160
1087.0000, -64.152
1087.1000, -64.101
1087.2000, -64.074
1087.3000, -64.061
1087.4000, -63.989
1087.5000, -63.767
1087.6000, -63.859
1087.7000, -63.883
1087.8000, -63.782
1087.9000, -63.684
1088.0000, -63.605
1088.1000, -63.628
1088.2000, -63.502
1088.3000, -63.508
1088.4000, -63.342
1088.5000, -63.326
1088.6000, -63.265
1088.7000, -63.210
1088.8000, -63.185
1088.9000, -63.040
1089.0000, -63.038
1089.1000, -62.884
1089.2000, -62.869
1089.3000, -62.758
1089.4000, -62.750
1089.5000, -62.649
1089.6000, -62.602
1089.7000, -62.441
1089.8000, -62.340
1089.9000, -62.327
1090.0000, -62.158
1090.1000, -62.127
1090.2000, -61.990
1090.3000, -61.907
1090.4000, -61.872
1090.5000, -61.808
1090.6000, -61.725
1090.7000, -61.600
1090.8000, -61.626
1090.9000, -61.511
1091.0000, -61.478
1091.1000, -61.386
1091.2000, -61.305
1091.3000, -61.221
1091.4000, -61.117
1091.5000, -61.074
1091.6000, -60.943
1091.7000, -60.881
1091.8000, -60.839
1091.9000, -60.703
1092.0000, -60.586
1092.1000, -60.522
1092.2000, -60.407
1092.3000, -60.353
1092.4000, -60.210
1092.5000, -60.187
1092.6000, -59.995
1092.7000, -59.969
1092.8000, -59.938
1092.9000, -59.731
1093.0000, -59.746
1093.1000, -59.685
1093.2000, -59.521
1093.3000, -59.459
1093.4000, -59.403
1093.5000, -59.289
1093.6000, -59.174
1093.7000, -59.078
1093.8000, -58.930
1093.9000, -58.833
1094.0000, -58.663
1094.1000, -58.549
1094.2000, -58.462
1094.3000, -58.331
1094.4000, -58.198
1094.5000, -58.106
1094.6000, -57.968
1094.7000, -57.840
1094.8000, -57.694
1094.9000, -57.528
1095.0000, -57.343
1095.1000, -57.359
1095.2000, -57.222
1095.3000, -57.128
1095.4000, -56.961
1095.5000, -56.821
1095.6000, -56.704
1095.7000, -56.486
1095.8000, -56.433
1095.9000, -56.243
1096.0000, -56.072
1096.1000, -55.889
1096.2000, -55.801
1096.3000, -55.569
1096.4000, -55.446
1096.5000, -55.303
1096.6000, -55.161
1096.7000, -54.968
1096.8000, -54.769
1096.9000, -54.676
1097.0000, -54.642
1097.1000, -54.461
1097.2000, -54.197
1097.3000, -54.221
1097.4000, -54.064
1097.5000, -53.915
1097.6000, -53.832
1097.7000, -53.730
1097.8000, -53.620
1097.9000, -53.521
1098.0000, -53.397
1098.1000, -53.295
1098.2000, -53.173
1098.3000, -53.046
1098.4000, -52.911
1098.5000, -52.684
1098.6000, -52.608
1098.7000, -52.499
1098.8000, -52.348
1098.9000, -52.237
1099.0000, -52.092
1099.1000, -51.966
1099.2000, -51.832
1099.3000, -51.706
1099.4000, -51.567
1099.5000, -51.399
1099.6000, -51.291
1099.7000, -51.110
1099.8000, -50.900
1099.9000, -50.771
1100.0000, -50.586
1100.1000, -50.400
1100.2000, -50.234
1100.3000, -50.024
1100.4000, -49.837
1100.5000, -49.678
1100.6000, -49.500
1100.7000, -49.345
1100.8000, -49.132
1100.9000, -48.992
1101.0000, -48.865
1101.1000, -48.669
1101.2000, -48.552
1101.3000, -48.458
1101.4000, -48.251
1101.5000, -48.145
1101.6000, -48.094
1101.7000, -47.941
1101.8000, -47.846
1101.9000, -47.784
1102.0000, -47.603
1102.1000, -47.503
1102.2000, -47.446
1102.3000, -47.353
1102.4000, -47.301
1102.5000, -47.150
1102.6000, -47.085
1102.7000, -47.001
1102.8000, -46.799
1102.9000, -46.720
1103.0000, -46.606
1103.1000, -46.453
1103.2000, -46.283
1103.3000, -46.192
1103.4000, -46.019
1103.5000, -45.847
1103.6000, -45.698
1103.7000, -45.585
1103.8000, -45.407
1103.9000, -45.245
1104.0000, -45.115
1104.1000, -44.845
1104.2000, -44.626
1104.3000, -44.479
1104.4000, -44.265
1104.5000, -44.082
1104.6000, -43.847
1104.7000, -43.584
1104.8000, -43.389
1104.9000, -43.120
1105.0000, -42.900
1105.1000, -42.677
1105.2000, -42.404
1105.3000, -42.087
1105.4000, -41.945
1105.5000, -41.819
1105.6000, -41.607
1105.7000, -41.434
1105.8000, -41.256
1105.9000, -41.114
1106.0000, -40.960
1106.1000, -40.921
1106.2000, -40.818
1106.3000, -40.716
1106.4000, -40.597
1106.5000, -40.549
1106.6000, -40.436
1106.7000, -40.295
1106.8000, -40.110
1106.9000, -39.978
1107.0000, -39.839
1107.1000, -39.725
1107.2000, -39.593
1107.3000, -39.409
1107.4000, -39.191
1107.5000, -39.047
1107.6000, -38.931
1107.7000, -38.732
1107.8000, -38.540
1107.9000, -38.386
1108.0000, -38.246
1108.1000, -38.012
1108.2000, -37.870
1108.3000, -37.631
1108.4000, -37.512
1108.5000, -37.337
1108.6000, -37.054
1108.7000, -36.947
1108.8000, -36.669
1108.9000, -36.411
1109.0000, -36.174
1109.1000, -35.994
1109.2000, -35.761
1109.3000, -35.509
1109.4000, -35.340
1109.5000, -35.095
1109.6000, -34.921
1109.7000, -34.774
1109.8000, -34.628
1109.9000, -34.446
1110.0000, -34.354
1110.1000, -34.275
1110.2000, -34.091
1110.3000, -34.107
1110.4000, -33.953
1110.5000, -33.870
1110.6000, -33.896
1110.7000, -33.893
1110.8000, -33.874
1110.9000, -33.717
1111.0000, -33.913
1111.1000, -33.695
1111.2000, -33.713
1111.3000, -33.631
1111.4000, -33.545
1111.5000, -33.473
1111.6000, -33.388
1111.7000, -33.343
1111.8000, -33.160
1111.9000, -33.090
1112.0000, -32.962
1112.1000, -32.933
1112.2000, -32.736
1112.3000, -32.643
1112.4000, -32.560
1112.5000, -32.461
1112.6000, -32.263
1112.7000, -32.146
1112.8000, -31.976
1112.9000, -31.951
1113.0000, -31.729
1113.1000, -31.592
1113.2000, -31.429
1113.3000, -31.299
1113.4000, -31.051
1113.5000, -30.787
1113.6000, -30.822
1113.7000, -30.469
1113.8000, -30.379
1113.9000, -30.228
1114.0000, -30.194
1114.1000, -29.972
1114.2000, -29.989
1114.3000, -29.947
1114.4000, -29.766
1114.5000, -29.860
1114.6000, -29.820
1114.7000, -29.734
1114.8000, -29.751
1114.9000, -29.900
1115.0000, -29.758
1115.1000, -29.800
1115.2000, -29.864
1115.3000, -29.826
1115.4000, -29.802
1115.5000, -29.803
1115.6000, -29.681
1115.7000, -29.606
1115.8000, -29.598
1115.9000, -29.573
1116.0000, -29.567
1116.1000, -29.482
1116.2000, -29.464
1116.3000, -29.477
1116.4000, -29.454
1116.5000, -29.408
1116.6000, -29.341
1116.7000, -29.324
1116.8000, -29.359
1116.9000, -29.327
1117.0000, -29.271
1117.1000, -29.301
1117.2000, -29.355
1117.3000, -29.337
1117.4000, -29.320
1117.5000, -29.377
1117.6000, -29.416
1117.7000, -29.482
1117.8000, -29.581
1117.9000, -29.540
1118.0000, -29.700
1118.1000, -29.791
1118.2000, -29.989
1118.3000, -30.000
1118.4000, -30.308
1118.5000, -30.380
1118.6000, -30.502
1118.7000, -30.861
1118.8000, -30.974
1118.9000, -31.187
1119.0000, -31.439
1119.1000, -31.773
1119.2000, -31.889
1119.3000, -32.222
1119.4000, -32.474
1119.5000, -32.701
1119.6000, -32.960
1119.7000, -33.292
1119.8000, -33.516
1119.9000, -33.702
1120.0000, -34.058
1120.1000, -34.302
1120.2000, -34.529
1120.3000, -34.759
1120.4000, -34.995
1120.5000, -35.215
1120.6000, -35.373
1120.7000, -35.500
1120.8000, -35.707
1120.9000, -35.846
1121.0000, -35.923
1121.1000, -36.012
1121.2000, -36.048
1121.3000, -36.114
1121.4000, -36.077
1121.5000, -36.144
1121.6000, -36.076
1121.7000, -35.996
1121.8000, -35.862
1121.9000, -35.834
1122.0000, -35.690
1122.1000, -35.525
1122.2000, -35.473
1122.3000, -35.286
1122.4000, -35.199
1122.5000, -35.038
1122.6000, -35.046
1122.7000, -34.859
1122.8000, -34.944
1122.9000, -35.036
1123.0000, -35.003
1123.1000, -35.102
1123.2000, -35.280
1123.3000, -35.423
1123.4000, -35.615
1123.5000, -36.021
1123.6000, -36.337
1123.7000, -36.682
1123.8000, -37.113
1123.9000, -37.651
1124.0000, -38.104
1124.1000, -38.777
1124.2000, -39.402
1124.3000, -40.025
1124.4000, -40.762
1124.5000, -41.576
1124.6000, -42.328
1124.7000, -43.154
1124.8000, -44.022
1124.9000, -44.926
1125.0000, -45.824
1125.1000, -46.720
1125.2000, -47.723
1125.3000, -48.646
1125.4000, -49.821
1125.5000, -50.620
1125.6000, -51.585
1125.7000, -52.578
1125.8000, -53.451
1125.9000, -54.432
1126.0000, -55.306
1126.1000, -56.298
1126.2000, -57.074
1126.3000, -58.014
1126.4000, -58.887
1126.5000, -59.758
1126.6000, -60.538
1126.7000, -61.299
1126.8000, -62.040
1126.9000, -62.656
1127.0000, -63.457
1127.1000, -63.983
1127.2000, -64.654
1127.3000, -65.203
1127.4000, -65.746
1127.5000, -66.234
1127.6000, -66.693
1127.7000, -67.265
1127.8000, -67.591
1127.9000, -67.967
1128.0000, -68.306
1128.1000, -68.947
1128.2000, -69.067
1128.3000, -69.326
1128.4000, -69.484
1128.5000, -69.966
1128.6000, -70.166
1128.7000, -70.706
1128.8000, -70.917
1128.9000, -70.661
1129.0000, -71.645
1129.1000, -72.077
1129.2000, -71.407
1129.3000, -72.058
1129.4000, -72.528
1129.5000, -72.482
1129.6000, -73.021
1129.7000, -72.821
1129.8000, -73.284
1129.9000, -73.421
1130.0000, -73.321
1130.1000, -73.362
1130.2000, -74.122
1130.3000, -74.234
1130.4000, -74.454
1130.5000, -74.293
1130.6000, -74.663
1130.7000, -73.478
1130.8000, -75.595
1130.9000, -75.130
1131.0000, -73.609
1131.1000, -74.261
1131.2000, -77.048
1131.3000, -75.000
1131.4000, -77.065
1131.5000, -74.349
1131.6000, -76.726
1131.7000, -76.069
1131.8000, -75.991
1131.9000, -76.189
1132.0000, -75.703
1132.1000, -75.092
1132.2000, -75.461
1132.3000, -76.435
1132.4000, -77.064
1132.5000, -77.361
1132.6000, -76.153
1132.7000, -76.705
1132.8000, -76.677
1132.9000, -76.422
1133.0000, -76.063
1133.1000, -75.951
1133.2000, -76.970
1133.3000, -76.110
1133.4000, -76.180
1133.5000, -76.556
1133.6000, -76.968
1133.7000, -76.541
1133.8000, -76.768
1133.9000, -76.285
1134.0000, -77.158
1134.1000, -76.417
1134.2000, -76.343
1134.3000, -76.434
1134.4000, -75.970
1134.5000, -76.049
1134.6000, -76.846
1134.7000, -76.290
1134.8000, -76.173
1134.9000, -76.615
1135.0000, -75.525
1135.1000, -77.085
1135.2000, -76.025
1135.3000, -75.454
1135.4000, -75.170
1135.5000, -76.965
1135.6000, -76.238
1135.7000, -75.381
1135.8000, -75.682
1135.9000, -75.331
1136.0000, -74.859
1136.1000, -75.855
1136.2000, -75.419
1136.3000, -74.660
1136.4000, -74.769
1136.5000, -74.045
1136.6000, -74.852
1136.7000, -73.420
1136.8000, -74.615
1136.9000, -74.318
1137.0000, -74.150
1137.1000, -74.969
1137.2000, -73.664
1137.3000, -73.361
1137.4000, -73.791
1137.5000, -73.312
1137.6000, -74.023
1137.7000, -73.986
1137.8000, -74.405
1137.9000, -74.263
1138.0000, -73.687
1138.1000, -74.013
1138.2000, -75.003
1138.3000, -74.636
1138.4000, -74.894
1138.5000, -77.084
1138.6000, -74.489
1138.7000, -76.430
1138.8000, -75.542
1138.9000, -76.002
1139.0000, -75.755
1139.1000, -76.628
1139.2000, -76.019
1139.3000, -77.878
1139.4000, -77.713
1139.5000, -77.078
1139.6000, -78.766
1139.7000, -76.446
1139.8000, -78.195
1139.9000, -78.297
1140.0000, -79.569
1140.1000, -77.087
1140.2000, -80.150
1140.3000, -77.985
1140.4000, -77.468
1140.5000, -82.827
1140.6000, -79.541
1140.7000, -78.400
1140.8000, -79.607
1140.9000, -85.855
1141.0000, -80.662
1141.1000, -78.819
1141.2000, -81.484
1141.3000, -80.663
1141.4000, -83.999
1141.5000, -79.667
1141.6000, -83.379
1141.7000, -80.211
1141.8000, -82.110
1141.9000, -81.334
1142.0000, -79.785
1142.1000, -78.437
1142.2000, -82.173
1142.3000, -82.509
1142.4000, -81.957
1142.5000, -81.492
1142.6000, -80.819
1142.7000, -83.676
1142.8000, -82.208
1142.9000, -81.936
1143.0000, -84.346
1143.1000, -83.624
1143.2000, -80.837
1143.3000, -81.408
1143.4000, -82.947
1143.5000, -81.060
1143.6000, -85.569
1143.7000, -82.937
1143.8000, -82.919
1143.9000, -84.059
1144.0000, -81.868
1144.1000, -80.682
1144.2000, -80.727
1144.3000, -82.225
1144.4000, -81.015
1144.5000, -80.990
1144.6000, -83.937
1144.7000, -83.494
1144.8000, -83.648
1144.9000, -81.335
1145.0000, -86.507
1145.1000, -82.847
1145.2000, -82.964
1145.3000, -85.443
1145.4000, -80.481
1145.5000, -81.916
1145.6000, -83.072
1145.7000, -84.982
1145.8000, -84.693
1145.9000, -83.955
1146.0000, -81.708
1146.1000, -81.206
1146.2000, -85.570
1146.3000, -84.465
1146.4000, -81.420
1146.5000, -81.990
1146.6000, -82.433
1146.7000, -81.612
1146.8000, -83.622
1146.9000, -83.682
1147.0000, -82.319
1147.1000, -85.911
1147.2000, -81.683
1147.3000, -83.863
1147.4000, -83.861
1147.5000, -83.330
1147.6000, -83.310
1147.7000, -81.902
1147.8000, -83.311
1147.9000, -82.509
1148.0000, -81.174
1148.1000, -83.636
1148.2000, -81.323
1148.3000,-210.000
1148.4000, -81.346
1148.5000, -84.931
1148.6000, -82.164
1148.7000, -82.926
1148.8000, -85.696
1148.9000, -82.462
1149.0000, -82.157
1149.1000, -81.573
1149.2000, -88.838
1149.3000, -85.197
1149.4000, -83.832
1149.5000, -82.285
1149.6000, -81.924
1149.7000, -83.076
1149.8000, -84.157
1149.9000, -83.873
1150.0000, -81.314
1150.1000, -79.065
1150.2000,-210.000
1150.3000, -85.438
1150.4000, -81.850
1150.5000, -81.880
1150.6000, -82.179
1150.7000, -84.665
1150.8000, -80.276
1150.9000, -81.404
1151.0000, -81.472
1151.1000, -90.296
1151.2000, -84.193
1151.3000, -82.651
1151.4000, -82.108
1151.5000, -83.051
1151.6000, -82.966
1151.7000,-104.901
1151.8000, -84.798
1151.9000, -83.389
1152.0000, -82.934
1152.1000, -82.248
1152.2000, -84.948
1152.3000, -84.363
1152.4000, -85.207
1152.5000, -83.496
1152.6000, -91.978
1152.7000, -87.089
1152.8000, -81.614
1152.9000, -82.316
1153.0000, -80.914
1153.1000,-210.000
1153.2000, -84.292
1153.3000, -82.182
1153.4000, -79.969
1153.5000, -86.231
1153.6000,-210.000
1153.7000, -82.076
1153.8000, -84.633
1153.9000, -80.453
1154.0000, -81.244
1154.1000, -85.601
1154.2000, -86.396
1154.3000, -83.628
1154.4000, -81.669
1154.5000, -84.220
1154.6000, -84.594
1154.7000, -83.278
1154.8000, -81.224
1154.9000, -81.709
1155.0000, -89.955
1155.1000, -86.141
1155.2000, -82.563
1155.3000, -81.189
1155.4000, -88.124
1155.5000, -83.852
1155.6000, -88.016
1155.7000, -82.735
1155.8000, -86.225
1155.9000, -86.493
1156.0000, -84.268
1156.1000, -83.826
1156.2000, -81.563
1156.3000, -80.703
1156.4000, -83.225
1156.5000, -80.543
1156.6000,-210.000
1156.7000, -86.474
1156.8000, -83.073
1156.9000, -81.282
1157.0000, -81.965
1157.1000, -82.807
1157.2000, -84.366
1157.3000, -83.259
1157.4000, -84.872
1157.5000, -82.921
1157.6000, -82.591
1157.7000, -86.381
1157.8000,-107.051
1157.9000, -83.092
1158.0000, -82.470
1158.1000, -82.353
1158.2000, -82.513
1158.3000, -88.049
1158.4000, -84.524
1158.5000, -83.784
1158.6000, -83.106
1158.7000, -84.442
1158.8000, -86.910
1158.9000, -82.145
1159.0000, -82.176
1159.1000, -79.914
1159.2000, -89.432
1159.3000, -85.806
1159.4000, -89.139
1159.5000, -80.718
1159.6000, -85.812
1159.7000, -86.469
1159.8000, -81.957
1159.9000, -84.049
1160.0000, -82.919
1160.1000, -81.677
1160.2000, -86.925
1160.3000, -83.511
1160.4000, -83.758
1160.5000, -84.268
1160.6000, -82.480
1160.7000, -81.516
1160.8000, -83.129
1160.9000, -82.229
1161.0000, -81.782
1161.1000, -81.671
1161.2000, -82.482
1161.3000, -81.458
1161.4000, -82.223
1161.5000, -81.928
1161.6000, -91.023
1161.7000, -82.774
1161.8000, -82.144
1161.9000, -81.340
1162.0000, -83.474
1162.1000, -80.692
1162.2000, -82.555
1162.3000, -82.923
1162.4000, -80.710
1162.5000, -81.012
1162.6000, -84.618
1162.7000, -82.537
1162.8000, -82.746
1162.9000, -81.252
1163.0000, -83.203
1163.1000, -83.115
1163.2000, -80.516
1163.3000, -81.149
1163.4000, -80.791
1163.5000, -82.930
1163.6000, -82.674
1163.7000, -80.825
1163.8000, -80.971
1163.9000, -81.649
1164.0000, -81.837
1164.1000, -81.694
1164.2000, -80.825
1164.3000, -81.407
1164.4000, -80.788
1164.5000, -80.037
1164.6000, -85.741
1164.7000, -81.700
1164.8000, -81.804
1164.9000, -79.452
1165.0000,-210.000
1165.1000, -82.578
1165.2000, -81.222
1165.3000, -78.854
1165.4000, -83.067
1165.5000, -81.270
1165.6000, -83.046
1165.7000, -82.145
1165.8000, -81.019
1165.9000, -82.014
1166.0000, -81.623
1166.1000, -81.229
1166.2000, -82.660
1166.3000, -81.062
1166.4000, -83.061
1166.5000, -81.836
1166.6000, -82.916
1166.7000, -82.168
1166.8000, -81.333
1166.9000, -81.276
1167.0000, -82.398
1167.1000, -83.533
1167.2000, -82.407
1167.3000, -84.096
1167.4000, -80.301
1167.5000, -81.859
1167.6000, -82.160
1167.7000, -81.158
1167.8000, -81.839
1167.9000, -87.077
1168.0000, -82.121
1168.1000, -80.208
1168.2000, -82.607
1168.3000, -84.420
1168.4000, -81.786
1168.5000, -82.567
1168.6000, -81.836
1168.7000, -81.361
1168.8000, -82.222
1168.9000, -82.462
1169.0000, -82.437
1169.1000, -84.761
1169.2000, -83.996
1169.3000, -83.349
1169.4000, -82.694
1169.5000, -84.041
1169.6000, -80.676
1169.7000, -81.054
1169.8000, -86.679
1169.9000, -86.436
1170.0000, -81.957
1170.1000, -82.545
1170.2000, -81.283
1170.3000, -82.895
1170.4000, -81.870
1170.5000, -83.218
1170.6000, -88.893
1170.7000, -83.873
1170.8000, -88.925
1170.9000, -81.848
1171.0000, -83.219
1171.1000, -80.523
1171.2000, -84.867
1171.3000,-100.510
1171.4000, -82.491
1171.5000,-210.000
1171.6000, -81.922
1171.7000, -82.129
1171.8000, -84.408
1171.9000, -86.666
1172.0000, -85.647
1172.1000, -79.823
1172.2000,-210.000
1172.3000, -84.801
1172.4000,-210.000
1172.5000, -78.095
1172.6000,-210.000
1172.7000, -81.759
1172.8000, -86.692
1172.9000, -83.234
1173.0000, -86.165
1173.1000, -88.200
1173.2000, -83.653
1173.3000, -93.037
1173.4000, -86.822
1173.5000, -83.513
1173.6000, -86.327
1173.7000,-210.000
1173.8000, -82.338
1173.9000, -88.851
1174.0000, -81.845
1174.1000, -80.977
1174.2000, -82.298
1174.3000,-210.000
1174.4000, -82.558
1174.5000, -91.298
1174.6000, -86.343
1174.7000, -80.914
1174.8000, -94.355
1174.9000, -86.848
1175.0000,-210.000
1175.1000, -78.980
1175.2000,-210.000
1175.3000,-210.000
1175.4000, -85.128
1175.5000,-100.197
1175.6000, -88.563
1175.7000, -80.125
1175.8000, -83.399
1175.9000,-210.000
1176.0000, -84.198
1176.1000, -83.219
1176.2000, -80.855
1176.3000, -82.283
1176.4000, -84.364
1176.5000, -93.810
1176.6000,-210.000
1176.7000, -81.711
1176.8000,-210.000
1176.9000, -85.556
1177.0000, -87.269
1177.1000, -81.923
1177.2000,-210.000
1177.3000, -80.649
1177.4000, -90.137
1177.5000, -80.976
1177.6000, -89.392
1177.7000, -84.140
1177.8000, -81.267
1177.9000, -96.906
1178.0000, -92.398
1178.1000, -85.472
1178.2000, -90.133
1178.3000, -83.579
1178.4000, -86.097
1178.5000, -84.998
1178.6000,-210.000
1178.7000, -82.087
1178.8000, -89.438
1178.9000, -91.574
1179.0000, -89.405
1179.1000, -84.734
1179.2000, -85.980
1179.3000, -83.725
1179.4000, -85.248
1179.5000, -93.743
1179.6000, -85.607
1179.7000, -82.893
1179.8000, -83.847
1179.9000, -85.033
1180.0000, -82.488
1180.1000, -82.349
1180.2000, -84.850
1180.3000, -85.476
1180.4000, -85.260
1180.5000,-114.284
1180.6000, -81.555
1180.7000,-210.000
1180.8000, -82.210
1180.9000, -88.770
1181.0000, -91.251
1181.1000, -83.803
1181.2000, -91.009
1181.3000, -86.130
1181.4000, -83.478
1181.5000, -84.035
1181.6000, -82.781
1181.7000, -90.365
1181.8000, -86.068
1181.9000, -84.516
1182.0000, -83.638
1182.1000, -84.704
1182.2000, -84.097
1182.3000,-210.000
1182.4000, -85.635
1182.5000, -83.908
1182.6000, -81.165
1182.7000, -86.139
1182.8000,-210.000
1182.9000, -84.318
1183.0000, -87.667
1183.1000,-210.000
1183.2000, -85.648
1183.3000, -85.019
1183.4000, -82.329
1183.5000, -92.469
1183.6000, -88.642
1183.7000, -86.006
1183.8000, -81.486
1183.9000, -85.148
1184.0000, -86.141
1184.1000, -88.719
1184.2000, -82.188
1184.3000, -97.702
1184.4000, -83.806
1184.5000, -87.774
1184.6000, -83.594
1184.7000, -89.711
1184.8000, -83.617
1184.9000, -82.426
1185.0000, -82.263
1185.1000, -85.183
1185.2000, -84.993
1185.3000, -83.485
1185.4000, -87.751
1185.5000, -82.293
1185.6000, -96.657
1185.7000, -84.493
1185.8000, -94.373
1185.9000, -83.980
1186.0000, -82.912
1186.1000, -83.372
1186.2000, -84.366
1186.3000, -87.021
1186.4000, -83.335
1186.5000, -87.899
1186.6000, -83.426
1186.7000, -83.388
1186.8000, -85.605
1186.9000, -82.326
1187.0000, -86.881
1187.1000,-210.000
1187.2000, -86.546
1187.3000, -83.951
1187.4000, -80.961
1187.5000, -85.439
1187.6000, -82.785
1187.7000,-106.860
1187.8000, -87.107
1187.9000, -83.695
1188.0000, -82.860
1188.1000, -88.422
1188.2000, -81.913
1188.3000, -83.648
1188.4000, -84.638
1188.5000, -85.287
1188.6000, -82.995
1188.7000, -83.135
1188.8000, -82.455
1188.9000, -83.695
1189.0000, -84.348
1189.1000, -84.200
1189.2000, -84.045
1189.3000, -82.236
1189.4000,-210.000
1189.5000, -83.111
1189.6000, -86.031
1189.7000, -82.359
1189.8000, -81.275
1189.9000, -82.112
1190.0000, -84.266
1190.1000, -86.377
1190.2000, -82.742
1190.3000, -82.480
1190.4000, -85.675
1190.5000, -82.887
1190.6000, -83.989
1190.7000, -88.743
1190.8000, -81.457
1190.9000, -84.298
1191.0000, -82.092
1191.1000, -82.351
1191.2000, -83.818
1191.3000, -82.550
1191.4000, -81.935
1191.5000, -80.839
1191.6000, -82.147
1191.7000, -80.463
1191.8000, -80.475
1191.9000, -81.401
1192.0000, -81.860
1192.1000, -82.727
1192.2000, -80.713
1192.3000, -82.240
1192.4000, -83.933
1192.5000, -79.955
1192.6000, -80.514
1192.7000, -83.873
1192.8000, -80.138
1192.9000, -83.320
1193.0000, -86.987
1193.1000, -81.331
1193.2000, -82.578
1193.3000, -82.388
1193.4000, -82.412
1193.5000, -83.168
1193.6000, -81.682
1193.7000, -82.069
1193.8000, -86.329
1193.9000, -79.796
1194.0000, -83.477
1194.1000, -81.686
1194.2000, -88.308
1194.3000, -82.683
1194.4000, -81.738
1194.5000, -84.976
1194.6000, -84.005
1194.7000, -80.270
1194.8000, -84.324
1194.9000, -82.741
1195.0000, -84.321
1195.1000, -82.157
1195.2000, -82.180
1195.3000, -86.316
1195.4000, -82.403
1195.5000, -85.044
1195.6000, -82.888
1195.7000, -86.283
1195.8000, -80.305
1195.9000,-210.000
1196.0000, -81.771
1196.1000, -86.058
1196.2000, -90.762
1196.3000, -85.308
1196.4000, -81.473
1196.5000, -83.072
1196.6000, -84.353
1196.7000, -83.194
1196.8000, -82.888
1196.9000, -84.891
1197.0000, -83.103
1197.1000, -83.072
1197.2000, -84.298
1197.3000, -83.346
1197.4000, -85.115
1197.5000, -88.353
1197.6000, -80.016
1197.7000, -97.688
1197.8000, -83.363
1197.9000, -81.781
1198.0000, -91.336
1198.1000, -89.112
1198.2000, -82.494
1198.3000, -91.422
1198.4000, -83.126
1198.5000, -86.489
1198.6000, -84.786
1198.7000, -80.590
1198.8000, -86.138
1198.9000,-210.000
1199.0000, -82.474
1199.1000, -89.335
1199.2000, -82.530
1199.3000, -83.615
1199.4000, -83.004
1199.5000, -84.947
1199.6000, -82.240
1199.7000, -91.195
1199.8000, -86.837
1199.9000, -82.529
1200.0000, -82.272
1200.1000, -85.312
1200.2000,-210.000
1200.3000, -85.318
1200.4000, -84.571
1200.5000, -86.665
1200.6000, -84.888
1200.7000, -90.641
1200.8000, -82.525
1200.9000, -81.933
1201.0000,-210.000
1201.1000, -87.344
1201.2000, -82.712
1201.3000, -81.792
1201.4000, -92.483
1201.5000,-210.000
1201.6000, -79.313
1201.7000,-210.000
1201.8000, -83.902
1201.9000, -84.018
1202.0000, -82.183
1202.1000, -87.155
1202.2000, -96.897
1202.3000, -81.480
1202.4000, -85.067
1202.5000,-210.000
1202.6000, -85.121
1202.7000, -84.990
1202.8000, -84.025
1202.9000, -84.395
1203.0000, -84.233
1203.1000, -83.882
1203.2000, -84.815
1203.3000, -85.536
1203.4000, -85.848
1203.5000, -87.605
1203.6000, -86.186
1203.7000, -83.824
1203.8000,-210.000
1203.9000, -82.719
1204.0000, -88.800
1204.1000,-210.000
1204.2000, -82.088
1204.3000, -91.503
1204.4000, -85.441
1204.5000, -87.886
1204.6000,-210.000
1204.7000, -90.494
1204.8000, -86.057
1204.9000, -78.577
1205.0000, -85.454
1205.1000, -92.928
1205.2000, -88.431
1205.3000, -82.019
1205.4000,-210.000
1205.5000, -87.662
1205.6000, -87.213
1205.7000,-210.000
1205.8000, -79.173
1205.9000,-210.000
1206.0000,-210.000
1206.1000, -88.840
1206.2000, -94.323
1206.3000, -88.571
1206.4000, -82.375
1206.5000, -85.423
1206.6000, -83.380
1206.7000,-210.000
1206.8000, -86.161
1206.9000, -85.798
1207.0000, -84.173
1207.1000,-210.000
1207.2000,-210.000
1207.3000, -82.365
1207.4000, -89.489
1207.5000, -82.211
1207.6000,-210.000
1207.7000, -85.485
1207.8000, -86.819
1207.9000,-210.000
1208.0000,-107.196
1208.1000, -84.308
1208.2000, -85.939
1208.3000, -88.618
1208.4000, -82.889
1208.5000, -86.386
1208.6000, -90.859
1208.7000, -84.079
1208.8000,-210.000
1208.9000, -83.312
1209.0000, -86.143
1209.1000, -82.105
1209.2000, -94.043
1209.3000, -97.908
1209.4000, -83.982
1209.5000, -86.722
1209.6000, -87.229
1209.7000, -88.038
1209.8000, -82.284
1209.9000, -96.708
1210.0000,-210.000
1210.1000, -86.254
1210.2000, -83.518
1210.3000,-210.000
1210.4000, -83.472
1210.5000, -85.922
1210.6000, -83.771
1210.7000, -81.839
1210.8000,-210.000
1210.9000, -85.403
1211.0000, -84.566
1211.1000,-210.000
1211.2000, -84.017
1211.3000,-210.000
1211.4000, -84.335
1211.5000, -84.363
1211.6000, -91.091
1211.7000, -85.203
1211.8000, -85.397
1211.9000,-210.000
1212.0000, -81.784
1212.1000, -88.143
1212.2000, -87.782
1212.3000, -98.529
1212.4000, -87.300
1212.5000, -87.404
1212.6000, -84.114
1212.7000, -94.534
1212.8000,-210.000
1212.9000, -85.433
1213.0000, -89.534
1213.1000, -85.138
1213.2000,-107.463
1213.3000, -81.359
1213.4000, -84.483
1213.5000, -85.686
1213.6000, -89.923
1213.7000, -83.551
1213.8000, -86.404
1213.9000, -86.050
1214.0000, -82.184
1214.1000, -83.774
1214.2000,-210.000
1214.3000, -88.571
1214.4000, -90.153
1214.5000, -81.762
1214.6000, -89.395
1214.7000, -86.204
1214.8000, -86.152
1214.9000, -85.595
1215.0000, -83.895
1215.1000, -89.671
1215.2000,-210.000
1215.3000, -84.124
1215.4000,-210.000
1215.5000, -85.338
1215.6000, -82.500
1215.7000, -84.366
1215.8000, -85.145
1215.9000,-210.000
1216.0000, -82.931
1216.1000, -81.477
1216.2000,-210.000
1216.3000, -92.874
1216.4000, -93.888
1216.5000, -89.338
1216.6000, -85.624
1216.7000, -86.893
1216.8000, -81.419
1216.9000,-210.000
1217.0000,-210.000
1217.1000, -84.518
1217.2000, -83.282
1217.3000, -84.046
1217.4000,-210.000
1217.5000, -86.166
1217.6000, -88.812
1217.7000, -85.173
1217.8000,-210.000
1217.9000, -82.928
1218.0000,-100.581
1218.1000,-210.000
1218.2000,-103.323
1218.3000, -84.677
1218.4000, -86.851
1218.5000, -85.110
1218.6000, -87.265
1218.7000, -83.431
1218.8000, -84.731
1218.9000,-210.000
1219.0000, -85.121
1219.1000, -84.794
1219.2000, -86.887
1219.3000, -84.931
1219.4000, -84.635
1219.5000, -90.959
1219.6000, -87.299
1219.7000, -92.192
1219.8000, -84.970
1219.9000, -92.215
1220.0000, -86.119
1220.1000, -83.948
1220.2000, -90.229
1220.3000, -88.355
1220.4000, -89.580
1220.5000, -91.395
1220.6000, -86.089
1220.7000,-210.000
1220.8000, -86.614
1220.9000,-210.000
1221.0000, -82.789
1221.1000, -83.283
1221.2000,-102.512
1221.3000, -94.280
1221.4000, -84.059
1221.5000, -86.344
1221.6000, -84.755
1221.7000,-210.000
1221.8000, -85.701
1221.9000, -86.766
1222.0000, -86.327
1222.1000, -94.779
1222.2000, -86.457
1222.3000, -86.082
1222.4000, -90.960
1222.5000,-210.000
1222.6000, -82.839
1222.7000, -82.103
1222.8000, -87.381
1222.9000, -89.145
1223.0000, -85.064
1223.1000, -81.923
1223.2000,-210.000
1223.3000, -89.550
1223.4000, -87.578
1223.5000, -83.848
1223.6000, -85.656
1223.7000, -91.463
1223.8000, -96.063
1223.9000,-210.000
1224.0000, -82.308
1224.1000, -95.944
1224.2000, -85.493
1224.3000,-210.000
1224.4000, -85.423
1224.5000, -82.506
1224.6000, -85.582
1224.7000, -85.264
1224.8000, -90.151
1224.9000, -85.172
1225.0000, -87.430
1225.1000,-210.000
1225.2000, -88.967
1225.3000, -86.432
1225.4000, -86.856
1225.5000, -83.103
1225.6000, -82.468
1225.7000,-210.000
1225.8000, -84.036
1225.9000, -83.303
1226.0000, -81.810
1226.1000,-210.000
1226.2000,-210.000
1226.3000, -86.643
1226.4000, -86.367
1226.5000, -87.036
1226.6000, -82.747
1226.7000,-210.000
1226.8000, -89.408
1226.9000, -90.769
1227.0000, -84.854
1227.1000, -91.915
1227.2000,-210.000
1227.3000, -85.042
1227.4000, -85.560
1227.5000, -84.604
1227.6000, -83.884
1227.7000,-210.000
1227.8000, -84.764
1227.9000, -94.262
1228.0000, -83.404
1228.1000, -87.305
1228.2000, -89.688
1228.3000, -85.136
1228.4000, -99.489
1228.5000, -89.569
1228.6000, -93.145
1228.7000, -92.784
1228.8000, -81.602
1228.9000, -88.983
1229.0000, -86.982
1229.1000, -88.075
1229.2000, -83.990
1229.3000, -89.791
1229.4000, -82.801
1229.5000, -83.769
1229.6000, -90.046
1229.7000, -82.870
1229.8000,-210.000
1229.9000, -83.860
1230.0000, -84.983
1230.1000, -91.982
1230.2000, -82.754
1230.3000,-210.000
1230.4000, -85.951
1230.5000, -82.022
1230.6000, -81.476
1230.7000, -85.657
1230.8000, -88.436
1230.9000,-210.000
1231.0000, -83.834
1231.1000, -86.354
1231.2000, -85.488
1231.3000, -86.029
1231.4000,-210.000
1231.5000,-210.000
1231.6000,-210.000
1231.7000, -83.106
1231.8000, -87.703
1231.9000, -84.447
1232.0000,-210.000
1232.1000, -82.930
1232.2000, -90.733
1232.3000, -80.865
1232.4000,-210.000
1232.5000, -87.148
1232.6000, -92.150
1232.7000, -82.352
1232.8000, -86.541
1232.9000, -82.897
1233.0000, -86.737
1233.1000,-210.000
1233.2000, -83.981
1233.3000,-210.000
1233.4000, -84.247
1233.5000, -85.163
1233.6000, -90.115
1233.7000, -84.040
1233.8000, -83.304
1233.9000,-210.000
1234.0000, -88.117
1234.1000, -86.485
1234.2000, -85.854
1234.3000, -82.613
1234.4000,-210.000
1234.5000, -97.138
1234.6000,-210.000
1234.7000, -83.185
1234.8000, -93.746
1234.9000, -85.955
1235.0000,-210.000
1235.1000, -83.116
1235.2000, -83.978
1235.3000,-210.000
1235.4000, -82.526
1235.5000, -86.903
1235.6000, -86.338
1235.7000, -86.917
1235.8000, -86.307
1235.9000, -83.154
1236.0000, -94.238
1236.1000, -87.766
1236.2000, -80.116
1236.3000, -82.670
1236.4000,-210.000
1236.5000, -81.458
1236.6000, -81.084
1236.7000,-210.000
1236.8000, -87.750
1236.9000,-210.000
1237.0000, -84.280
1237.1000,-210.000
1237.2000, -86.673
1237.3000,-210.000
1237.4000, -81.276
1237.5000, -81.796
1237.6000, -84.850
1237.7000,-210.000
1237.8000, -80.595
1237.9000,-210.000
1238.0000, -85.365
1238.1000, -88.379
1238.2000, -83.804
1238.3000, -85.719
1238.4000,-210.000
1238.5000, -81.580
1238.6000, -86.863
1238.7000,-210.000
1238.8000, -88.993
1238.9000, -82.249
1239.0000,-210.000
1239.1000, -84.149
1239.2000, -89.449
1239.3000, -90.701
1239.4000, -87.487
1239.5000, -89.335
1239.6000, -84.477
1239.7000, -87.187
1239.8000, -82.420
1239.9000, -89.376
1240.0000, -87.663
1240.1000, -88.890
1240.2000, -88.689
1240.3000, -86.894
1240.4000, -83.340
1240.5000, -91.973
1240.6000, -87.173
1240.7000, -81.561
1240.8000, -85.072
1240.9000,-210.000
1241.0000, -99.140
1241.1000, -85.206
1241.2000, -84.324
1241.3000,-210.000
1241.4000, -84.343
1241.5000, -88.090
1241.6000, -89.848
1241.7000, -83.062
1241.8000, -89.307
1241.9000, -91.429
1242.0000, -85.397
1242.1000, -92.928
1242.2000, -91.923
1242.3000, -87.748
1242.4000, -85.115
1242.5000, -84.498
1242.6000, -84.967
1242.7000,-210.000
1242.8000, -84.472
1242.9000, -92.152
1243.0000, -85.847
1243.1000, -86.418
1243.2000, -83.822
1243.3000, -84.097
1243.4000, -98.240
1243.5000, -85.126
1243.6000,-210.000
1243.7000, -86.547
1243.8000, -85.370
1243.9000, -90.845
1244.0000, -88.051
1244.1000,-210.000
1244.2000, -85.909
1244.3000, -84.360
1244.4000, -87.720
1244.5000, -83.991
1244.6000, -84.150
1244.7000, -84.684
1244.8000, -93.962
1244.9000, -85.645
1245.0000,-210.000
1245.1000, -82.061
1245.2000, -91.399
1245.3000, -84.154
1245.4000, -84.250
1245.5000, -97.653
1245.6000, -94.046
1245.7000, -92.346
1245.8000, -85.016
1245.9000, -86.805
1246.0000, -87.106
1246.1000,-210.000
1246.2000, -87.746
1246.3000, -92.791
1246.4000, -87.392
1246.5000, -88.581
1246.6000, -83.514
1246.7000, -83.949
1246.8000, -89.513
1246.9000, -85.466
1247.0000, -85.442
1247.1000, -87.959
1247.2000, -86.810
1247.3000, -86.388
1247.4000, -83.321
1247.5000, -86.147
1247.6000, -90.024
1247.7000, -91.642
1247.8000, -86.930
1247.9000,-210.000
1248.0000, -85.470
1248.1000, -87.579
1248.2000, -85.265
1248.3000, -87.116
1248.4000, -87.063
1248.5000,-210.000
1248.6000, -80.915
1248.7000, -87.431
1248.8000, -83.724
1248.9000, -85.953
1249.0000, -83.556
1249.1000,-210.000
1249.2000, -92.492
1249.3000, -85.930
1249.4000, -83.423
1249.5000, -86.433
1249.6000, -88.860
1249.7000, -84.574
1249.8000,-210.000
1249.9000, -85.828
1250.0000, -84.612
1250.1000, -87.996
1250.2000, -83.824
1250.3000, -91.131
1250.4000,-102.962
1250.5000,-210.000
1250.6000, -84.265
1250.7000, -88.066
1250.8000,-210.000
1250.9000, -83.517
1251.0000,-210.000
1251.1000, -82.850
1251.2000, -82.596
1251.3000, -87.590
1251.4000, -86.094
1251.5000, -89.478
1251.6000, -86.499
1251.7000,-210.000
1251.8000, -94.712
1251.9000, -84.481
1252.0000, -84.013
1252.1000,-210.000
1252.2000, -84.015
1252.3000,-210.000
1252.4000, -88.834
1252.5000, -83.710
1252.6000, -86.682
1252.7000, -88.730
1252.8000, -84.801
1252.9000,-210.000
1253.0000, -87.187
1253.1000, -84.381
1253.2000, -82.264
1253.3000,-210.000
1253.4000, -83.659
1253.5000,-210.000
1253.6000, -80.674
1253.7000, -88.529
1253.8000, -85.846
1253.9000, -83.297
1254.0000,-210.000
1254.1000, -86.157
1254.2000,-210.000
1254.3000, -86.300
1254.4000, -88.614
1254.5000, -83.681
1254.6000, -84.071
1254.7000, -83.885
1254.8000,-105.289
1254.9000, -85.933
1255.0000, -89.198
1255.1000, -84.568
1255.2000, -82.791
1255.3000,-210.000
1255.4000, -88.328
1255.5000, -85.492
1255.6000, -91.429
1255.7000, -84.536
1255.8000,-210.000
1255.9000, -89.142
1256.0000, -80.156
1256.1000, -95.539
1256.2000,-210.000
1256.3000,-210.000
1256.4000, -84.683
1256.5000, -85.340
1256.6000, -79.492
1256.7000,-210.000
1256.8000, -81.464
1256.9000,-210.000
1257.0000, -84.793
1257.1000, -89.838
1257.2000, -95.666
1257.3000, -93.222
1257.4000,-210.000
1257.5000, -88.885
1257.6000, -84.165
1257.7000, -84.204
1257.8000, -82.916
1257.9000, -82.980
1258.0000,-210.000
1258.1000,-210.000
1258.2000, -87.710
1258.3000, -84.830
1258.4000, -83.595
1258.5000, -91.716
1258.6000, -87.921
1258.7000, -86.819
1258.8000,-210.000
1258.9000,-210.000
1259.0000, -87.030
1259.1000, -87.977
1259.2000, -85.108
1259.3000, -85.203
1259.4000, -82.801
1259.5000, -81.370
1259.6000,-210.000
1259.7000, -82.234
1259.8000,-210.000
1259.9000, -84.522
1260.0000,-210.000
1260.1000, -84.523
1260.2000, -84.715
1260.3000, -80.091
1260.4000,-210.000
1260.5000, -82.699
1260.6000, -89.137
1260.7000, -80.611
1260.8000,-210.000
1260.9000, -81.100
1261.0000, -85.682
1261.1000, -89.077
1261.2000, -84.185
1261.3000, -87.433
1261.4000, -84.102
1261.5000,-210.000
1261.6000,-210.000
1261.7000, -87.852
1261.8000, -98.648
1261.9000, -84.282
1262.0000, -90.784
1262.1000, -85.180
1262.2000, -81.142
1262.3000, -88.238
1262.4000,-210.000
1262.5000, -87.719
1262.6000,-210.000
1262.7000, -93.448
1262.8000, -81.951
1262.9000, -84.830
1263.0000, -86.793
1263.1000, -86.904
1263.2000,-210.000
1263.3000, -88.396
1263.4000, -87.667
1263.5000, -86.681
1263.6000, -84.739
1263.7000, -91.259
1263.8000, -87.624
1263.9000, -86.772
1264.0000,-210.000
1264.1000,-101.350
1264.2000, -84.146
1264.3000, -83.180
1264.4000,-210.000
1264.5000,-210.000
1264.6000, -82.896
1264.7000, -87.447
1264.8000, -84.967
1264.9000, -88.645
1265.0000, -85.161
1265.1000, -91.185
1265.2000, -91.932
1265.3000, -84.888
1265.4000, -82.081
1265.5000, -84.991
1265.6000, -89.921
1265.7000, -85.494
1265.8000,-210.000
1265.9000,-210.000
1266.0000, -85.152
1266.1000, -83.946
1266.2000,-210.000
1266.3000, -88.974
1266.4000, -94.446
1266.5000, -83.130
1266.6000,-104.911
1266.7000,-210.000
1266.8000, -85.692
1266.9000,-210.000
1267.0000, -84.110
1267.1000,-210.000
1267.2000, -87.870
1267.3000, -84.548
1267.4000,-210.000
1267.5000, -84.029
1267.6000, -86.325
1267.7000,-210.000
1267.8000, -88.470
1267.9000, -85.387
1268.0000, -86.083
1268.1000, -89.231
1268.2000,-210.000
1268.3000, -88.816
1268.4000, -84.446
1268.5000, -83.035
1268.6000,-103.631
1268.7000, -85.746
1268.8000, -85.271
1268.9000,-210.000
1269.0000, -88.195
1269.1000, -86.120
1269.2000, -88.115
1269.3000, -85.500
1269.4000, -82.425
1269.5000, -83.934
1269.6000,-102.357
1269.7000, -91.510
1269.8000, -85.974
1269.9000, -85.971
1270.0000,-210.000
1270.1000, -87.148
1270.2000, -84.984
1270.3000, -94.491
1270.4000, -87.567
1270.5000, -89.818
1270.6000, -84.422
1270.7000, -97.398
1270.8000, -88.110
1270.9000, -85.680
1271.0000, -84.672
1271.1000, -85.731
1271.2000,-210.000
1271.3000, -87.112
1271.4000, -87.946
1271.5000,-210.000
1271.6000, -82.403
1271.7000, -87.183
1271.8000, -85.849
1271.9000, -97.367
1272.0000, -96.657
1272.1000, -80.850
1272.2000, -90.167
1272.3000, -84.440
1272.4000, -88.305
1272.5000, -86.752
1272.6000, -83.966
1272.7000, -88.554
1272.8000, -88.870
1272.9000, -91.732
1273.0000, -84.486
1273.1000,-210.000
1273.2000, -89.905
1273.3000, -87.884
1273.4000, -98.240
1273.5000, -88.840
1273.6000, -88.795
1273.7000, -84.742
1273.8000, -82.737
1273.9000,-210.000
1274.0000, -85.877
1274.1000, -86.657
1274.2000, -91.983
1274.3000,-210.000
1274.4000, -84.888
1274.5000, -89.007
1274.6000, -96.065
1274.7000, -85.245
1274.8000, -84.368
1274.9000, -86.013
1275.0000, -83.954
1275.1000, -88.229
1275.2000, -94.549
1275.3000, -86.568
1275.4000, -85.579
1275.5000,-210.000
1275.6000, -93.142
1275.7000, -85.874
1275.8000, -83.191
1275.9000, -83.078
1276.0000, -85.775
1276.1000,-210.000
1276.2000, -97.068
1276.3000, -85.300
1276.4000,-210.000
1276.5000, -93.522
1276.6000,-210.000
1276.7000, -82.770
1276.8000, -88.169
1276.9000, -83.825
1277.0000, -86.219
1277.1000, -83.398
1277.2000, -91.545
1277.3000,-210.000
1277.4000, -84.126
1277.5000, -88.566
1277.6000, -87.056
1277.7000, -88.506
1277.8000, -88.683
1277.9000, -83.773
1278.0000, -81.075
1278.1000, -84.456
1278.2000,-210.000
1278.3000, -82.958
1278.4000, -86.748
1278.5000, -80.326
1278.6000,-210.000
1278.7000, -88.263
1278.8000,-107.706
1278.9000,-210.000
1279.0000, -82.491
1279.1000, -89.106
1279.2000, -88.762
1279.3000, -86.370
1279.4000, -87.204
1279.5000,-210.000
1279.6000, -85.412
1279.7000, -90.624
1279.8000, -82.290
1279.9000, -89.731
1280.0000, -82.744
1280.1000,-210.000
1280.2000, -81.939
1280.3000, -85.382
1280.4000, -85.078
1280.5000, -83.323
1280.6000, -92.387
1280.7000,-210.000
1280.8000, -82.713
1280.9000, -93.543
1281.0000, -85.029
1281.1000, -87.197
1281.2000, -87.947
1281.3000, -84.733
1281.4000,-210.000
1281.5000, -85.137
1281.6000, -85.349
1281.7000, -89.579
1281.8000, -84.926
1281.9000, -87.407
1282.0000, -83.240
1282.1000,-210.000
1282.2000, -85.003
1282.3000, -87.536
1282.4000, -86.277
1282.5000, -90.376
1282.6000, -94.857
1282.7000, -86.799
1282.8000, -84.732
1282.9000,-210.000
1283.0000, -94.868
1283.1000,-120.880
1283.2000, -83.231
1283.3000, -85.182
1283.4000, -81.695
1283.5000,-210.000
1283.6000, -86.506
1283.7000, -84.179
1283.8000, -92.935
1283.9000, -92.360
1284.0000, -97.000
1284.1000, -84.792
1284.2000, -85.939
1284.3000, -93.500
1284.4000, -86.543
1284.5000, -85.258
1284.6000, -99.313
1284.7000, -88.326
1284.8000, -83.978
1284.9000,-102.768
1285.0000, -83.585
1285.1000, -95.685
1285.2000, -87.273
1285.3000, -87.683
1285.4000, -84.436
1285.5000, -85.305
1285.6000, -89.386
1285.7000, -90.313
1285.8000, -84.969
1285.9000, -88.300
1286.0000, -86.368
1286.1000,-210.000
1286.2000, -83.827
1286.3000, -90.495
1286.4000, -81.687
1286.5000,-210.000
1286.6000,-210.000
1286.7000, -89.499
1286.8000, -83.162
1286.9000, -84.298
1287.0000, -86.426
1287.1000, -88.918
1287.2000, -93.646
1287.3000, -87.324
1287.4000,-100.684
1287.5000, -84.081
1287.6000, -88.317
1287.7000, -83.806
1287.8000, -83.072
1287.9000, -88.951
1288.0000,-210.000
1288.1000, -86.509
1288.2000, -84.184
1288.3000, -87.929
1288.4000, -91.032
1288.5000, -85.702
1288.6000, -85.281
1288.7000,-210.000
1288.8000, -84.630
1288.9000, -85.221
1289.0000, -97.818
1289.1000, -92.954
1289.2000, -84.473
1289.3000,-210.000
1289.4000, -85.375
1289.5000, -95.847
1289.6000, -80.538
1289.7000,-210.000
1289.8000, -84.627
1289.9000, -84.951
1290.0000, -91.131
1290.1000, -86.179
1290.2000, -86.418
1290.3000, -87.112
1290.4000, -87.203
1290.5000,-210.000
1290.6000, -85.470
1290.7000, -86.615
1290.8000, -81.651
1290.9000, -87.722
1291.0000,-210.000
1291.1000, -86.275
1291.2000, -85.526
1291.3000, -85.570
1291.4000, -89.988
1291.5000, -87.476
1291.6000, -89.715
1291.7000, -84.172
1291.8000, -81.055
1291.9000,-210.000
1292.0000, -88.768
1292.1000, -89.533
1292.2000,-210.000
1292.3000, -85.669
1292.4000, -84.664
1292.5000, -82.017
1292.6000, -94.068
1292.7000, -88.964
1292.8000, -81.331
1292.9000, -84.228
1293.0000,-210.000
1293.1000, -84.484
1293.2000, -88.991
1293.3000,-210.000
1293.4000, -93.064
1293.5000, -87.875
1293.6000, -81.577
1293.7000,-210.000
1293.8000, -89.592
1293.9000, -91.066
1294.0000, -85.903
1294.1000, -84.110
1294.2000,-210.000
1294.3000, -85.778
1294.4000, -86.146
1294.5000, -85.369
1294.6000, -89.120
1294.7000, -85.234
1294.8000, -87.389
1294.9000, -84.721
1295.0000, -84.819
1295.1000, -86.921
1295.2000, -92.352
1295.3000, -83.380
1295.4000,-210.000
1295.5000, -82.066
1295.6000, -94.108
1295.7000, -86.453
1295.8000,-210.000
1295.9000, -83.562
1296.0000, -87.561
1296.1000, -93.261
1296.2000, -86.881
1296.3000, -83.069
1296.4000, -98.531
1296.5000, -84.369
1296.6000, -84.160
1296.7000, -88.802
1296.8000, -88.297
1296.9000, -94.780
1297.0000, -85.327
1297.1000, -87.220
1297.2000, -86.785
1297.3000,-210.000
1297.4000, -83.830
1297.5000, -89.723
1297.6000, -79.868
1297.7000,-210.000
1297.8000,-210.000
1297.9000, -81.431
1298.0000,-210.000
1298.1000, -86.087
1298.2000, -86.419
1298.3000, -83.839
1298.4000,-210.000
1298.5000,-210.000
1298.6000, -80.699
1298.7000,-210.000
1298.8000, -88.295
1298.9000, -82.095
1299.0000, -89.113
1299.1000, -89.835
1299.2000, -86.686
1299.3000, -87.366
1299.4000,-104.483
1299.5000, -86.442
1299.6000, -92.553
1299.7000,-210.000
1299.8000, -98.239
1299.9000, -86.319
1300.0000,-210.000
1300.1000, -89.709
1300.2000, -87.489
1300.3000, -87.862
1300.4000, -87.038
1300.5000, -88.640
1300.6000,-210.000
1300.7000,-210.000
1300.8000, -83.188
1300.9000,-210.000
1301.0000, -91.766
1301.1000, -91.259
1301.2000, -86.304
1301.3000, -92.222
1301.4000, -85.944
1301.5000,-210.000
1301.6000, -84.780
1301.7000, -83.136
1301.8000, -86.665
1301.9000, -89.544
1302.0000, -88.579
1302.1000,-210.000
1302.2000, -86.757
1302.3000, -85.655
1302.4000, -88.785
1302.5000, -94.266
1302.6000, -80.879
1302.7000, -93.249
1302.8000, -82.846
1302.9000,-210.000
1303.0000,-210.000
1303.1000, -83.812
1303.2000, -92.616
1303.3000, -86.710
1303.4000, -92.375
1303.5000, -87.150
1303.6000, -90.339
1303.7000,-101.244
1303.8000, -87.099
1303.9000, -95.004
1304.0000,-210.000
1304.1000, -90.499
1304.2000, -88.161
1304.3000, -83.913
1304.4000, -92.245
1304.5000, -82.166
1304.6000,-210.000
1304.7000, -88.874
1304.8000, -88.068
1304.9000, -84.252
1305.0000,-210.000
1305.1000,-210.000
1305.2000,-210.000
1305.3000, -83.045
1305.4000, -85.908
1305.5000,-210.000
1305.6000, -83.865
1305.7000,-210.000
1305.8000, -89.728
1305.9000, -83.374
1306.0000,-210.000
1306.1000, -88.717
1306.2000, -85.506
1306.3000, -90.840
1306.4000, -86.368
1306.5000, -96.999
1306.6000, -85.585
1306.7000, -87.046
1306.8000, -90.452
1306.9000, -84.955
1307.0000, -84.105
1307.1000, -83.393
1307.2000, -92.163
1307.3000, -91.647
1307.4000, -85.736
1307.5000, -87.881
1307.6000, -86.287
1307.7000, -97.293
1307.8000, -94.016
1307.9000, -84.536
1308.0000, -86.251
1308.1000, -93.501
1308.2000, -86.964
1308.3000,-210.000
1308.4000, -84.428
1308.5000, -83.372
1308.6000, -86.496
1308.7000,-210.000
1308.8000, -84.334
1308.9000, -81.543
1309.0000, -82.484
1309.1000,-210.000
1309.2000,-210.000
1309.3000, -82.555
1309.4000, -86.681
1309.5000,-210.000
1309.6000, -85.605
1309.7000, -86.581
1309.8000, -84.558
1309.9000,-210.000
1310.0000, -86.154
1310.1000, -84.249
1310.2000, -86.726
1310.3000, -86.019
1310.4000,-100.048
1310.5000, -85.870
1310.6000,-210.000
1310.7000, -89.020
1310.8000, -85.601
1310.9000, -83.937
1311.0000,-210.000
1311.1000, -86.795
1311.2000, -85.791
1311.3000, -87.571
1311.4000, -88.161
1311.5000, -84.937
1311.6000,-210.000
1311.7000,-210.000
1311.8000, -86.205
1311.9000, -85.961
1312.0000, -85.977
1312.1000, -89.208
1312.2000, -88.392
1312.3000, -84.305
1312.4000, -94.921
1312.5000, -85.682
1312.6000, -90.901
1312.7000, -84.165
1312.8000, -82.340
1312.9000,-210.000
1313.0000, -87.310
1313.1000, -94.365
1313.2000, -83.675
1313.3000, -86.593
1313.4000, -81.191
1313.5000, -84.495
1313.6000,-210.000
1313.7000,-105.348
1313.8000, -85.257
1313.9000, -87.080
1314.0000, -85.032
1314.1000, -93.568
1314.2000, -84.040
1314.3000,-210.000
1314.4000, -83.564
1314.5000, -83.784
1314.6000,-210.000
1314.7000, -87.662
1314.8000, -86.836
1314.9000, -85.036
1315.0000, -87.043
1315.1000, -91.115
1315.2000, -80.768
1315.3000, -83.829
1315.4000, -92.400
1315.5000,-210.000
1315.6000, -82.016
1315.7000, -84.725
1315.8000, -90.419
1315.9000, -87.928
1316.0000,-210.000
1316.1000, -82.510
1316.2000,-210.000
1316.3000, -83.449
1316.4000, -82.832
1316.5000, -87.699
1316.6000,-210.000
1316.7000,-110.121
1316.8000, -90.086
1316.9000, -87.712
1317.0000,-210.000
1317.1000, -87.058
1317.2000, -82.156
1317.3000, -83.417
1317.4000, -82.410
1317.5000,-210.000
1317.6000, -84.109
1317.7000, -87.237
1317.8000, -81.020
1317.9000,-210.000
1318.0000, -82.547
1318.1000, -91.704
1318.2000, -85.107
1318.3000, -86.546
1318.4000, -85.381
1318.5000, -82.934
1318.6000, -82.892
1318.7000, -82.402
1318.8000, -80.319
1318.9000, -80.685
1319.0000, -80.131
1319.1000, -81.754
1319.2000, -79.854
1319.3000, -81.346
1319.4000, -80.565
1319.5000, -77.747
1319.6000, -80.348
1319.7000, -89.755
1319.8000, -81.395
1319.9000, -81.055
1320.0000, -79.216
1320.1000, -90.510
1320.2000, -79.901
1320.3000, -83.520
1320.4000, -81.585
1320.5000, -82.157
1320.6000, -81.286
1320.7000,-210.000
1320.8000, -82.247
1320.9000, -82.951
1321.0000, -91.424
1321.1000, -83.626
1321.2000, -89.955
1321.3000, -80.348
1321.4000,-210.000
1321.5000, -83.781
1321.6000, -81.589
1321.7000, -82.336
1321.8000,-210.000
1321.9000, -82.998
1322.0000, -90.752
1322.1000, -87.310
1322.2000, -84.921
1322.3000, -89.600
1322.4000, -86.837
1322.5000,-210.000
1322.6000, -84.446
1322.7000,-210.000
1322.8000, -82.066
1322.9000, -91.890
1323.0000, -88.724
1323.1000, -84.197
1323.2000,-210.000
1323.3000, -86.387
1323.4000, -87.240
1323.5000, -82.323
1323.6000, -83.286
1323.7000,-210.000
1323.8000, -83.442
1323.9000, -85.516
1324.0000, -84.812
1324.1000, -92.545
1324.2000, -88.333
1324.3000, -87.356
1324.4000,-210.000
1324.5000, -88.986
1324.6000,-210.000
1324.7000, -85.730
1324.8000, -85.967
1324.9000, -84.886
1325.0000, -86.683
1325.1000, -84.078
1325.2000, -88.300
1325.3000,-210.000
1325.4000,-210.000
1325.5000, -84.347
1325.6000, -87.016
1325.7000, -82.587
1325.8000,-210.000
1325.9000, -90.145
1326.0000,-210.000
1326.1000, -90.290
1326.2000, -85.135
1326.3000, -86.835
1326.4000, -95.445
1326.5000, -86.083
1326.6000, -88.770
1326.7000,-210.000
1326.8000, -86.851
1326.9000, -93.142
1327.0000, -85.342
1327.1000, -88.766
1327.2000, -82.784
1327.3000,-210.000
1327.4000,-210.000
1327.5000, -83.335
1327.6000,-101.040
1327.7000, -82.121
1327.8000, -87.376
1327.9000, -82.484
1328.0000, -86.812
1328.1000, -88.783
1328.2000, -97.102
1328.3000,-210.000
1328.4000,-210.000
1328.5000, -84.955
1328.6000,-210.000
1328.7000, -85.892
1328.8000, -81.019
1328.9000,-210.000
1329.0000, -86.381
1329.1000, -90.743
1329.2000, -83.750
1329.3000, -89.198
1329.4000,-210.000
1329.5000, -84.047
1329.6000,-210.000
1329.7000, -85.563
1329.8000, -86.943
1329.9000, -81.779
1330.0000, -85.591
1330.1000,-100.055
1330.2000,-210.000
1330.3000, -82.706
1330.4000, -91.856
1330.5000, -99.102
1330.6000, -86.556
1330.7000, -89.538
1330.8000, -87.233
1330.9000, -86.292
1331.0000, -85.601
1331.1000, -88.495
1331.2000, -85.587
1331.3000, -87.984
1331.4000, -84.117
1331.5000, -80.045
1331.6000,-210.000
1331.7000, -91.271
1331.8000, -95.036
1331.9000, -87.257
1332.0000, -85.402
1332.1000, -82.525
1332.2000, -87.371
1332.3000, -84.065
1332.4000,-210.000
1332.5000, -82.860
1332.6000, -85.612
1332.7000,-210.000
1332.8000, -84.449
1332.9000, -86.940
1333.0000,-210.000
1333.1000, -85.880
1333.2000, -89.016
1333.3000, -82.891
1333.4000, -86.532
1333.5000, -88.287
1333.6000, -85.902
1333.7000, -82.144
1333.8000, -82.827
1333.9000, -83.799
1334.0000, -86.842
1334.1000, -84.216
1334.2000, -82.276
1334.3000, -80.510
1334.4000, -82.747
1334.5000,-210.000
1334.6000, -85.924
1334.7000, -81.583
1334.8000, -82.833
1334.9000, -81.767
1335.0000, -82.699
1335.1000, -85.413
1335.2000, -80.453
1335.3000, -82.148
1335.4000, -87.407
1335.5000, -82.467
1335.6000, -81.755
1335.7000, -80.072
1335.8000, -83.097
1335.9000, -81.592
1336.0000, -80.428
1336.1000, -81.828
1336.2000, -82.637
1336.3000,-210.000
1336.4000, -81.067
1336.5000,-210.000
1336.6000,-210.000
1336.7000,-210.000
1336.8000, -97.103
1336.9000, -85.678
1337.0000, -80.432
1337.1000, -83.666
1337.2000, -85.541
1337.3000,-210.000
1337.4000,-210.000
1337.5000, -81.533
1337.6000, -84.456
1337.7000, -90.957
1337.8000, -84.925
1337.9000, -82.517
1338.0000, -83.058
1338.1000, -84.582
1338.2000, -83.794
1338.3000, -80.945
1338.4000, -81.124
1338.5000, -81.504
1338.6000, -83.757
1338.7000, -80.075
1338.8000, -80.643
1338.9000, -78.479
1339.0000, -79.843
1339.1000, -82.470
1339.2000, -81.329
1339.3000, -80.405
1339.4000, -79.342
1339.5000, -79.037
1339.6000, -88.207
1339.7000, -83.463
1339.8000, -87.242
1339.9000, -94.192
1340.0000, -81.300
1340.1000, -85.135
1340.2000, -80.465
1340.3000, -85.338
1340.4000,-210.000
1340.5000, -85.581
1340.6000, -85.007
1340.7000, -81.938
1340.8000, -87.611
1340.9000, -80.680
1341.0000, -83.252
1341.1000,-210.000
1341.2000, -84.147
1341.3000, -82.813
1341.4000, -86.562
1341.5000, -87.001
1341.6000, -83.191
1341.7000, -82.290
1341.8000, -82.111
1341.9000, -82.011
1342.0000, -83.898
1342.1000, -81.520
1342.2000, -86.662
1342.3000, -82.353
1342.4000, -88.953
1342.5000, -81.095
1342.6000,-210.000
1342.7000, -84.537
1342.8000, -83.209
1342.9000,-210.000
1343.0000, -92.159
1343.1000, -87.025
1343.2000, -82.489
1343.3000,-210.000
1343.4000, -84.394
1343.5000, -80.336
1343.6000, -92.030
1343.7000, -88.042
1343.8000, -91.019
1343.9000, -88.880
1344.0000, -86.215
1344.1000,-210.000
1344.2000, -89.422
1344.3000, -85.321
1344.4000, -97.423
1344.5000, -91.125
1344.6000, -85.539
1344.7000,-210.000
1344.8000, -82.527
1344.9000,-112.406
1345.0000, -85.019
1345.1000, -87.130
1345.2000, -88.591
1345.3000, -90.124
1345.4000, -87.948
1345.5000, -89.194
1345.6000, -99.014
1345.7000,-210.000
1345.8000,-210.000
1345.9000, -82.728
1346.0000, -86.069
1346.1000,-210.000
1346.2000, -85.281
1346.3000, -85.242
1346.4000,-210.000
1346.5000, -82.612
1346.6000,-210.000
1346.7000, -82.835
1346.8000,-210.000
1346.9000, -84.728
1347.0000,-210.000
1347.1000, -82.080
1347.2000, -85.756
1347.3000,-210.000
1347.4000, -96.829
1347.5000, -85.754
1347.6000, -86.415
1347.7000, -80.862
1347.8000, -87.326
1347.9000, -86.242
1348.0000, -84.131
1348.1000,-210.000
1348.2000,-210.000
1348.3000, -95.529
1348.4000, -87.117
1348.5000, -84.719
1348.6000,-210.000
1348.7000, -85.178
1348.8000, -85.092
1348.9000, -85.595
1349.0000,-210.000
1349.1000, -82.127
1349.2000,-210.000
1349.3000, -87.894
1349.4000, -87.679
1349.5000, -92.778
1349.6000,-210.000
1349.7000, -89.103
1349.8000, -83.995
1349.9000, -85.619
1350.0000, -84.831
1350.1000,-210.000
1350.2000, -88.616
1350.3000, -83.985
1350.4000, -89.958
1350.5000, -87.091
1350.6000, -82.782
1350.7000,-210.000
1350.8000,-210.000
1350.9000, -87.214
1351.0000,-102.895
1351.1000, -83.493
1351.2000, -80.074
1351.3000, -86.496
1351.4000,-210.000
1351.5000, -92.252
1351.6000, -85.527
1351.7000,-210.000
1351.8000, -86.466
1351.9000, -93.199
1352.0000, -84.802
1352.1000, -86.466
1352.2000, -84.163
1352.3000, -83.957
1352.4000, -88.750
1352.5000,-210.000
1352.6000, -82.274
1352.7000,-210.000
1352.8000, -85.391
1352.9000, -82.438
1353.0000,-210.000
1353.1000,-210.000
1353.2000, -87.139
1353.3000, -82.208
1353.4000,-210.000
1353.5000,-210.000
1353.6000, -84.382
1353.7000, -83.862
1353.8000, -91.224
1353.9000, -84.758
1354.0000, -91.287
1354.1000, -82.571
1354.2000, -85.736
1354.3000, -91.338
1354.4000, -84.531
1354.5000, -81.927
1354.6000, -85.932
1354.7000,-210.000
1354.8000,-210.000
1354.9000, -82.138
1355.0000, -87.501
1355.1000, -85.454
1355.2000,-210.000
1355.3000, -80.150
1355.4000,-210.000
1355.5000, -86.803
1355.6000, -82.561
1355.7000, -85.287
1355.8000, -89.313
1355.9000, -87.402
1356.0000, -86.525
1356.1000, -84.616
1356.2000, -87.337
1356.3000, -84.020
1356.4000, -87.996
1356.5000, -82.571
1356.6000, -86.077
1356.7000, -79.669
1356.8000, -83.385
1356.9000, -84.441
1357.0000, -81.100
1357.1000,-101.610
1357.2000, -80.942
1357.3000, -80.610
1357.4000, -86.970
1357.5000, -85.630
1357.6000, -83.350
1357.7000, -82.480
1357.8000, -82.914
1357.9000, -86.914
1358.0000, -84.482
1358.1000, -84.078
1358.2000, -92.384
1358.3000, -86.374
1358.4000, -83.112
1358.5000, -83.387
1358.6000, -86.419
1358.7000, -85.763
1358.8000, -89.638
1358.9000, -90.126
1359.0000, -87.170
1359.1000,-210.000
1359.2000, -82.669
1359.3000, -86.874
1359.4000, -88.431
1359.5000, -84.022
1359.6000,-210.000
1359.7000, -83.768
1359.8000, -86.303
1359.9000, -85.524
1360.0000,-210.000
1360.1000,-210.000
1360.2000, -93.231
1360.3000, -85.594
1360.4000,-210.000
1360.5000, -85.663
1360.6000, -83.561
1360.7000, -85.802
1360.8000, -84.225
1360.9000, -87.692
1361.0000, -81.388
1361.1000, -81.834
1361.2000,-210.000
1361.3000, -86.096
1361.4000, -81.810
1361.5000,-210.000
1361.6000,-210.000
1361.7000, -84.674
1361.8000, -95.787
1361.9000, -84.964
1362.0000, -82.859
1362.1000,-210.000
1362.2000,-210.000
1362.3000, -83.886
1362.4000,-210.000
1362.5000,-210.000
1362.6000, -84.547
1362.7000, -87.569
1362.8000,-210.000
1362.9000, -82.764
1363.0000, -90.617
1363.1000,-210.000
1363.2000,-104.044
1363.3000,-210.000
1363.4000, -84.937
1363.5000, -80.582
1363.6000,-210.000
1363.7000, -84.852
1363.8000,-210.000
1363.9000, -84.414
1364.0000, -82.048
1364.1000, -86.105
1364.2000, -86.621
1364.3000, -85.142
1364.4000, -86.381
1364.5000,-210.000
1364.6000, -84.217
1364.7000, -83.550
1364.8000, -93.257
1364.9000, -87.457
1365.0000, -84.890
1365.1000, -84.664
1365.2000,-210.000
1365.3000,-210.000
1365.4000, -86.730
1365.5000, -83.120
1365.6000, -86.737
1365.7000, -86.831
1365.8000,-210.000
1365.9000, -85.226
1366.0000,-210.000
1366.1000, -95.833
1366.2000, -85.421
1366.3000, -87.781
1366.4000,-210.000
1366.5000, -83.955
1366.6000, -88.866
1366.7000,-210.000
1366.8000, -83.757
1366.9000, -90.690
1367.0000, -89.921
1367.1000, -83.568
1367.2000,-210.000
1367.3000, -86.940
1367.4000,-101.210
1367.5000, -81.274
1367.6000,-210.000
1367.7000, -90.212
1367.8000, -82.907
1367.9000, -84.197
1368.0000, -94.905
1368.1000, -89.556
1368.2000, -87.541
1368.3000,-210.000
1368.4000,-210.000
1368.5000, -84.478
1368.6000, -97.619
1368.7000, -81.156
1368.8000,-210.000
1368.9000, -88.338
1369.0000, -85.326
1369.1000, -84.627
1369.2000,-210.000
1369.3000,-210.000
1369.4000, -84.983
1369.5000,-210.000
1369.6000, -86.620
1369.7000, -87.330
1369.8000, -81.507
1369.9000, -85.988
1370.0000,-210.000
1370.1000,-107.396
1370.2000, -82.847
1370.3000, -81.021
1370.4000, -88.764
1370.5000, -83.078
1370.6000,-210.000
1370.7000,-210.000
1370.8000, -84.649
1370.9000, -89.308
1371.0000, -85.430
1371.1000, -87.149
1371.2000, -85.987
1371.3000, -89.427
1371.4000, -85.572
1371.5000, -87.229
1371.6000, -85.190
1371.7000, -89.201
1371.8000, -85.103
1371.9000, -88.235
1372.0000,-210.000
1372.1000, -82.110
1372.2000, -83.183
1372.3000, -84.736
1372.4000, -82.693
1372.5000,-210.000
1372.6000,-210.000
1372.7000, -80.095
1372.8000, -94.152
1372.9000, -91.808
1373.0000, -85.396
1373.1000, -91.424
1373.2000, -87.651
1373.3000, -82.334
1373.4000,-210.000
1373.5000,-210.000
1373.6000, -81.104
1373.7000, -87.353
1373.8000, -88.251
1373.9000,-210.000
1374.0000,-210.000
1374.1000, -87.548
1374.2000, -82.427
1374.3000, -88.112
1374.4000, -88.980
1374.5000, -99.247
1374.6000, -90.356
1374.7000,-210.000
1374.8000, -79.830
1374.9000, -84.198
1375.0000, -90.128
1375.1000, -88.255
1375.2000,-210.000
1375.3000,-210.000
1375.4000, -83.722
1375.5000, -84.720
1375.6000, -83.603
1375.7000,-210.000
1375.8000, -87.334
1375.9000,-210.000
1376.0000, -85.651
1376.1000, -82.671
1376.2000, -88.446
1376.3000,-210.000
1376.4000, -88.910
1376.5000,-210.000
1376.6000, -82.262
1376.7000, -84.001
1376.8000, -84.274
1376.9000,-210.000
1377.0000, -97.338
1377.1000, -86.813
1377.2000, -86.157
1377.3000, -84.019
1377.4000, -90.800
1377.5000, -82.079
1377.6000,-210.000
1377.7000, -85.114
1377.8000, -91.745
1377.9000, -86.151
1378.0000,-210.000
1378.1000,-210.000
1378.2000, -83.213
1378.3000, -85.123
1378.4000, -84.214
1378.5000, -89.999
1378.6000, -88.717
1378.7000, -88.037
1378.8000,-210.000
1378.9000, -84.795
1379.0000, -90.005
1379.1000, -90.003
1379.2000, -82.773
1379.3000,-210.000
1379.4000, -84.519
1379.5000, -86.710
1379.6000,-104.249
1379.7000,-102.551
1379.8000,-210.000
1379.9000, -85.021
1380.0000, -84.421
1380.1000, -87.052
1380.2000, -84.672
1380.3000,-210.000
1380.4000,-210.000
1380.5000, -83.027
1380.6000,-210.000
1380.7000, -83.419
1380.8000, -97.833
1380.9000,-210.000
1381.0000, -86.327
1381.1000, -88.642
1381.2000, -82.395
1381.3000, -90.362
1381.4000, -93.850
1381.5000, -81.442
1381.6000, -84.412
1381.7000,-210.000
1381.8000, -92.090
1381.9000, -85.631
1382.0000, -86.045
1382.1000, -92.326
1382.2000, -89.389
1382.3000, -86.243
1382.4000, -81.773
1382.5000,-210.000
1382.6000, -85.912
1382.7000,-210.000
1382.8000, -87.708
1382.9000, -84.655
1383.0000, -87.839
1383.1000, -91.595
1383.2000, -84.547
1383.3000, -86.445
1383.4000, -88.594
1383.5000, -96.644
1383.6000, -84.818
1383.7000, -90.508
1383.8000, -88.906
1383.9000,-210.000
1384.0000, -88.122
1384.1000, -99.560
1384.2000, -83.708
1384.3000, -91.410
1384.4000, -93.483
1384.5000, -85.871
1384.6000, -88.384
1384.7000,-210.000
1384.8000, -83.298
1384.9000, -86.426
1385.0000, -85.219
1385.1000,-210.000
1385.2000, -83.536
1385.3000, -90.773
1385.4000,-210.000
1385.5000, -86.580
1385.6000, -91.682
1385.7000, -86.901
1385.8000, -85.528
1385.9000,-210.000
1386.0000, -85.723
1386.1000, -83.657
1386.2000, -89.550
1386.3000, -82.203
1386.4000,-210.000
1386.5000, -87.691
1386.6000, -97.848
1386.7000, -83.000
1386.8000, -87.473
1386.9000, -95.823
1387.0000,-210.000
1387.1000, -85.618
1387.2000, -82.760
1387.3000,-210.000
1387.4000, -86.537
1387.5000, -88.798
1387.6000, -85.570
1387.7000, -85.703
1387.8000,-210.000
1387.9000, -82.422
1388.0000, -88.596
1388.1000,-210.000
1388.2000, -87.454
1388.3000, -83.567
1388.4000, -88.739
1388.5000, -81.979
1388.6000,-210.000
1388.7000, -82.103
1388.8000, -93.289
1388.9000, -83.926
1389.0000,-210.000
1389.1000, -92.488
1389.2000,-210.000
1389.3000, -88.814
1389.4000, -90.481
1389.5000, -91.468
1389.6000, -81.941
1389.7000,-210.000
1389.8000, -83.668
1389.9000, -82.630
1390.0000, -84.458
1390.1000,-210.000
1390.2000,-210.000
1390.3000, -85.665
1390.4000, -87.639
1390.5000, -91.746
1390.6000, -82.859
1390.7000,-210.000
1390.8000, -84.002
1390.9000, -82.749
1391.0000,-210.000
1391.1000, -87.057
1391.2000,-210.000
1391.3000, -82.714
1391.4000,-210.000
1391.5000,-210.000
1391.6000, -84.567
1391.7000,-210.000
1391.8000,-210.000
1391.9000, -82.186
1392.0000, -83.073
1392.1000, -86.437
1392.2000, -84.361
1392.3000, -87.108
1392.4000, -96.665
1392.5000,-102.850
1392.6000, -90.631
1392.7000, -83.250
1392.8000,-210.000
1392.9000, -80.310
1393.0000,-108.037
1393.1000, -87.262
1393.2000, -85.249
1393.3000,-210.000
1393.4000, -84.849
1393.5000, -85.574
1393.6000, -85.775
1393.7000,-210.000
1393.8000, -81.891
1393.9000,-210.000
1394.0000, -87.246
1394.1000, -88.280
1394.2000, -83.254
1394.3000,-210.000
1394.4000,-210.000
1394.5000, -84.828
1394.6000, -84.437
1394.7000,-210.000
1394.8000, -84.575
1394.9000,-210.000
1395.0000, -83.235
1395.1000,-210.000
1395.2000, -88.023
1395.3000, -95.045
1395.4000,-210.000
1395.5000, -84.700
1395.6000, -81.372
1395.7000, -87.168
1395.8000,-210.000
1395.9000, -82.236
1396.0000,-210.000
1396.1000,-210.000
1396.2000, -84.975
1396.3000, -83.534
1396.4000, -85.506
1396.5000,-210.000
1396.6000, -84.081
1396.7000, -90.752
1396.8000, -91.133
1396.9000, -89.089
1397.0000, -83.708
1397.1000, -83.571
1397.2000, -89.739
1397.3000, -85.716
1397.4000,-210.000
1397.5000, -81.198
1397.6000,-210.000
1397.7000, -82.660
1397.8000, -84.211
1397.9000, -86.589
1398.0000,-210.000
1398.1000, -80.201
1398.2000,-210.000
1398.3000,-210.000
1398.4000, -82.167
1398.5000, -92.979
1398.6000, -84.973
1398.7000, -85.791
1398.8000, -85.281
1398.9000, -86.357
1399.0000, -87.750
1399.1000, -85.778
1399.2000, -83.940
1399.3000, -88.126
1399.4000, -85.845
1399.5000, -85.564
1399.6000, -88.171
1399.7000, -85.591
1399.8000,-210.000
1399.9000, -88.366
1400.0000, -91.480
1400.1000, -81.522
1400.2000, -91.658
1400.3000, -83.909
1400.4000,-111.394
1400.5000,-210.000
1400.6000, -82.063
1400.7000, -84.814
1400.8000, -87.941
1400.9000, -90.360
1401.0000, -90.333
1401.1000, -85.121
1401.2000, -84.963
1401.3000, -90.059
1401.4000, -83.735
1401.5000,-210.000
1401.6000, -86.746
1401.7000,-210.000
1401.8000, -96.132
1401.9000, -83.695
1402.0000, -81.512
1402.1000, -91.294
1402.2000, -86.971
1402.3000,-210.000
1402.4000,-210.000
1402.5000, -88.436
1402.6000, -89.418
1402.7000,-210.000
1402.8000, -82.111
1402.9000, -88.454
1403.0000, -83.885
1403.1000, -88.043
1403.2000, -84.145
1403.3000, -85.159
1403.4000, -89.713
1403.5000, -86.956
1403.6000,-210.000
1403.7000, -87.813
1403.8000, -85.020
1403.9000, -82.604
1404.0000, -82.185
1404.1000, -84.430
1404.2000, -87.402
1404.3000,-210.000
1404.4000, -80.691
1404.5000, -85.484
1404.6000, -86.832
1404.7000,-210.000
1404.8000, -91.580
1404.9000, -90.966
1405.0000, -84.539
1405.1000, -85.506
1405.2000, -81.444
1405.3000, -90.589
1405.4000,-210.000
1405.5000,-106.114
1405.6000,-210.000
1405.7000, -83.662
1405.8000,-210.000
1405.9000,-210.000
1406.0000, -83.208
1406.1000, -91.689
1406.2000, -93.935
1406.3000,-210.000
1406.4000, -83.706
1406.5000, -82.521
1406.6000,-210.000
1406.7000, -86.811
1406.8000, -86.253
1406.9000, -83.493
1407.0000, -96.831
1407.1000,-210.000
1407.2000, -85.946
1407.3000, -88.475
1407.4000, -91.817
1407.5000, -99.914
1407.6000, -85.065
1407.7000, -90.365
1407.8000, -85.599
1407.9000,-210.000
1408.0000, -84.617
1408.1000, -90.311
1408.2000, -87.491
1408.3000, -85.463
1408.4000, -82.704
1408.5000, -89.127
1408.6000, -94.421
1408.7000, -95.309
1408.8000, -84.864
1408.9000, -85.117
1409.0000, -85.853
1409.1000,-210.000
1409.2000, -86.007
1409.3000, -84.583
1409.4000, -82.841
1409.5000, -87.499
1409.6000, -85.264
1409.7000, -84.937
1409.8000,-210.000
1409.9000, -92.375
1410.0000, -84.081
1410.1000, -87.624
1410.2000, -88.370
1410.3000, -83.793
1410.4000, -83.875
1410.5000, -85.645
1410.6000, -82.759
1410.7000, -85.591
1410.8000,-106.271
1410.9000,-210.000
1411.0000, -85.626
1411.1000, -95.812
1411.2000, -82.760
1411.3000, -89.552
1411.4000, -81.403
1411.5000, -85.237
1411.6000,-210.000
1411.7000, -92.946
1411.8000, -80.939
1411.9000, -82.890
1412.0000, -96.670
1412.1000, -80.477
1412.2000,-210.000
1412.3000, -86.879
1412.4000, -80.755
1412.5000, -87.439
1412.6000,-210.000
1412.7000, -82.028
1412.8000, -83.089
1412.9000, -84.438
1413.0000,-210.000
1413.1000, -94.300
1413.2000, -83.986
1413.3000, -80.844
1413.4000, -84.346
1413.5000, -82.318
1413.6000,-210.000
1413.7000, -84.127
1413.8000, -84.943
1413.9000, -81.061
1414.0000, -94.052
1414.1000, -89.499
1414.2000, -81.708
1414.3000, -90.519
1414.4000, -92.087
1414.5000, -87.707
1414.6000, -88.057
1414.7000, -80.778
1414.8000, -90.952
1414.9000, -81.809
1415.0000, -89.847
1415.1000, -83.651
1415.2000, -98.100
1415.3000, -83.782
1415.4000, -83.364
1415.5000, -82.157
1415.6000, -86.565
1415.7000, -84.755
1415.8000,-210.000
1415.9000, -83.801
1416.0000, -95.049
1416.1000, -82.711
1416.2000, -89.357
1416.3000,-210.000
1416.4000, -81.740
1416.5000, -85.031
1416.6000,-210.000
1416.7000, -84.126
1416.8000,-210.000
1416.9000, -91.064
1417.0000, -86.476
1417.1000, -84.770
1417.2000, -84.310
1417.3000, -85.998
1417.4000,-210.000
1417.5000, -84.262
1417.6000, -87.491
1417.7000, -84.785
1417.8000, -86.895
1417.9000, -82.036
1418.0000, -88.053
1418.1000, -85.377
1418.2000, -83.183
1418.3000,-210.000
1418.4000, -81.573
1418.5000, -94.795
1418.6000, -92.297
1418.7000, -86.512
1418.8000,-210.000
1418.9000, -83.733
1419.0000, -84.519
1419.1000, -83.953
1419.2000, -83.583
1419.3000,-210.000
1419.4000, -86.121
1419.5000,-210.000
1419.6000, -85.451
1419.7000, -84.818
1419.8000, -81.957
1419.9000, -91.275
1420.0000, -87.015
1420.1000, -84.910
1420.2000, -83.769
1420.3000, -99.768
1420.4000,-210.000
1420.5000, -84.335
1420.6000,-210.000
1420.7000, -86.825
1420.8000, -86.052
1420.9000, -85.099
1421.0000, -88.490
1421.1000, -92.113
1421.2000, -83.934
1421.3000, -83.577
1421.4000, -88.301
1421.5000,-210.000
1421.6000, -85.058
1421.7000, -79.628
1421.8000,-210.000
1421.9000, -89.134
1422.0000, -83.133
1422.1000,-210.000
1422.2000, -83.694
1422.3000,-210.000
1422.4000, -82.364
1422.5000,-210.000
1422.6000, -81.911
1422.7000,-210.000
1422.8000, -84.337
1422.9000, -97.705
1423.0000, -82.998
1423.1000, -86.700
1423.2000, -85.227
1423.3000,-210.000
1423.4000, -90.115
1423.5000, -85.791
1423.6000, -81.531
1423.7000, -92.150
1423.8000,-210.000
1423.9000,-210.000
1424.0000, -88.209
1424.1000, -84.567
1424.2000, -91.161
1424.3000, -83.798
1424.4000,-210.000
1424.5000, -85.587
1424.6000, -84.984
1424.7000, -83.773
1424.8000, -86.639
1424.9000, -84.416
1425.0000, -85.944
1425.1000,-210.000
1425.2000, -83.650
1425.3000, -84.733
1425.4000,-210.000
1425.5000, -83.796
1425.6000, -97.097
1425.7000, -80.479
1425.8000, -84.415
1425.9000, -81.656
1426.0000,-210.000
1426.1000,-210.000
1426.2000, -86.461
1426.3000, -87.258
1426.4000, -87.715
1426.5000, -83.766
1426.6000, -89.897
1426.7000, -86.726
1426.8000,-210.000
1426.9000, -82.769
1427.0000, -83.920
1427.1000,-210.000
1427.2000, -86.008
1427.3000, -82.787
1427.4000, -81.522
1427.5000, -84.235
1427.6000, -90.027
1427.7000, -90.419
1427.8000, -84.240
1427.9000, -82.726
1428.0000, -81.331
1428.1000,-210.000
1428.2000, -81.811
1428.3000, -90.493
1428.4000, -89.880
1428.5000,-210.000
1428.6000, -89.122
1428.7000, -84.146
1428.8000, -83.483
1428.9000, -81.793
1429.0000, -88.749
1429.1000, -85.488
1429.2000, -86.789
1429.3000,-104.365
1429.4000, -87.603
1429.5000, -82.886
1429.6000, -84.616
1429.7000, -89.492
1429.8000, -83.429
1429.9000, -83.084
1430.0000, -85.469
1430.1000, -85.927
1430.2000, -81.737
1430.3000, -85.723
1430.4000, -89.321
1430.5000, -84.440
1430.6000, -82.653
1430.7000, -98.171
1430.8000, -83.232
1430.9000, -84.455
1431.0000,-210.000
1431.1000, -82.737
1431.2000, -85.499
1431.3000, -87.791
1431.4000, -82.593
1431.5000, -83.687
1431.6000,-210.000
1431.7000, -81.378
1431.8000, -88.710
1431.9000,-210.000
1432.0000, -84.081
1432.1000, -87.084
1432.2000, -91.931
1432.3000, -83.291
1432.4000, -81.480
1432.5000, -79.547
1432.6000,-210.000
1432.7000,-210.000
1432.8000, -82.657
1432.9000, -87.841
1433.0000, -86.647
1433.1000, -82.564
1433.2000, -82.682
1433.3000, -85.873
1433.4000, -85.634
1433.5000, -88.257
1433.6000, -87.171
1433.7000, -83.603
1433.8000, -84.445
1433.9000, -88.583
1434.0000, -87.266
1434.1000, -87.759
1434.2000,-210.000
1434.3000, -83.483
1434.4000, -86.577
1434.5000, -91.754
1434.6000, -89.366
1434.7000, -84.746
1434.8000, -85.995
1434.9000, -86.041
1435.0000, -86.516
1435.1000, -87.329
1435.2000, -88.100
1435.3000, -84.439
1435.4000, -80.878
1435.5000, -88.675
1435.6000, -81.188
1435.7000,-210.000
1435.8000, -83.684
1435.9000, -85.229
1436.0000, -83.580
1436.1000, -83.140
1436.2000, -82.071
1436.3000, -91.430
1436.4000,-210.000
1436.5000, -83.804
1436.6000, -84.027
1436.7000,-210.000
1436.8000, -84.830
1436.9000,-210.000
1437.0000, -85.348
1437.1000, -84.763
1437.2000,-210.000
1437.3000, -85.867
1437.4000, -83.455
1437.5000, -89.901
1437.6000, -84.785
1437.7000,-210.000
1437.8000, -88.017
1437.9000, -83.072
1438.0000, -84.546
1438.1000,-210.000
1438.2000, -84.539
1438.3000, -87.555
1438.4000, -83.816
1438.5000, -87.948
1438.6000, -84.610
1438.7000, -84.948
1438.8000, -84.715
1438.9000, -89.382
1439.0000, -85.024
1439.1000, -87.048
1439.2000, -83.369
1439.3000, -88.834
1439.4000, -87.483
1439.5000, -81.972
1439.6000, -81.980
1439.7000, -84.417
1439.8000, -82.507
1439.9000,-210.000
1440.0000, -84.448
1440.1000,-210.000
1440.2000, -83.051
1440.3000, -88.138
1440.4000,-101.336
1440.5000, -80.435
1440.6000,-210.000
1440.7000, -79.130
1440.8000, -86.748
1440.9000, -80.979
1441.0000,-210.000
1441.1000, -87.346
1441.2000, -81.797
1441.3000, -84.089
1441.4000,-210.000
1441.5000, -86.104
1441.6000, -91.863
1441.7000, -86.150
1441.8000, -83.602
1441.9000,-210.000
1442.0000,-210.000
1442.1000, -85.664
1442.2000, -84.295
1442.3000, -83.535
1442.4000, -88.646
1442.5000, -90.761
1442.6000, -82.760
1442.7000, -86.824
1442.8000, -85.114
1442.9000,-210.000
1443.0000, -84.843
1443.1000, -82.251
1443.2000, -84.564
1443.3000, -89.193
1443.4000, -81.759
1443.5000, -86.476
1443.6000, -83.841
1443.7000, -84.464
1443.8000, -84.171
1443.9000, -86.979
1444.0000, -80.747
1444.1000, -85.705
1444.2000, -85.220
1444.3000, -86.364
1444.4000, -84.358
1444.5000, -93.472
1444.6000, -86.781
1444.7000, -86.154
1444.8000, -87.059
1444.9000, -83.352
1445.0000, -89.484
1445.1000, -86.452
1445.2000, -84.004
1445.3000, -88.409
1445.4000, -84.532
1445.5000, -85.714
1445.6000, -83.792
1445.7000, -89.497
1445.8000, -89.758
1445.9000,-210.000
1446.0000, -85.584
1446.1000, -84.051
1446.2000,-101.029
1446.3000, -82.782
1446.4000, -89.321
1446.5000, -84.592
1446.6000, -85.411
1446.7000, -85.035
1446.8000, -82.946
1446.9000, -87.701
1447.0000, -82.525
1447.1000,-210.000
1447.2000,-210.000
1447.3000, -80.165
1447.4000, -93.174
1447.5000, -96.250
1447.6000, -84.596
1447.7000, -82.031
1447.8000, -85.610
1447.9000, -86.459
1448.0000, -84.210
1448.1000, -87.318
1448.2000, -88.787
1448.3000, -92.088
1448.4000,-210.000
1448.5000, -83.706
1448.6000, -86.895
1448.7000, -82.526
1448.8000, -84.338
1448.9000, -87.579
1449.0000, -87.088
1449.1000, -86.873
1449.2000, -83.453
1449.3000, -83.676
1449.4000, -89.273
1449.5000, -83.950
1449.6000, -83.964
1449.7000, -83.873
1449.8000, -86.809
1449.9000, -92.656
1450.0000, -85.047
1450.1000,-210.000
1450.2000, -83.915
1450.3000, -85.757
1450.4000, -87.458
1450.5000, -82.716
1450.6000, -88.122
1450.7000, -81.814
1450.8000, -82.743
1450.9000,-210.000
1451.0000, -82.593
1451.1000,-210.000
1451.2000, -86.322
1451.3000, -87.706
1451.4000, -88.878
1451.5000, -85.558
1451.6000, -82.386
1451.7000, -88.640
1451.8000, -98.021
1451.9000, -85.211
1452.0000, -81.879
1452.1000, -86.399
1452.2000, -78.949
1452.3000,-210.000
1452.4000, -87.672
1452.5000,-210.000
1452.6000,-106.016
1452.7000,-210.000
1452.8000, -93.519
1452.9000, -81.566
1453.0000, -85.168
1453.1000, -82.495
1453.2000,-100.985
1453.3000, -83.764
1453.4000, -85.160
1453.5000, -82.390
1453.6000, -86.393
1453.7000, -92.974
1453.8000, -86.060
1453.9000,-210.000
1454.0000, -84.429
1454.1000, -85.308
1454.2000,-210.000
1454.3000,-210.000
1454.4000, -89.392
1454.5000, -81.643
1454.6000, -92.112
1454.7000, -89.897
1454.8000, -91.243
1454.9000, -81.752
1455.0000, -90.794
1455.1000, -85.277
1455.2000, -86.164
1455.3000, -90.531
1455.4000, -86.121
1455.5000, -82.048
1455.6000,-210.000
1455.7000,-210.000
1455.8000, -83.289
1455.9000, -87.208
1456.0000, -82.037
1456.1000, -82.705
1456.2000,-210.000
1456.3000, -91.428
1456.4000, -86.807
1456.5000, -89.538
1456.6000, -86.465
1456.7000, -84.501
1456.8000, -84.144
1456.9000, -89.707
1457.0000, -90.262
1457.1000,-210.000
1457.2000, -83.573
1457.3000, -83.245
1457.4000, -90.431
1457.5000, -93.446
1457.6000, -89.505
1457.7000, -86.657
1457.8000, -84.597
1457.9000, -86.363
1458.0000, -83.772
1458.1000,-210.000
1458.2000, -81.127
1458.3000,-210.000
1458.4000, -87.093
1458.5000, -82.783
1458.6000, -85.832
1458.7000, -83.398
1458.8000, -84.617
1458.9000,-210.000
1459.0000, -82.448
1459.1000, -84.790
1459.2000, -89.163
1459.3000,-210.000
1459.4000, -82.766
1459.5000,-210.000
1459.6000, -85.514
1459.7000, -89.045
1459.8000, -82.655
1459.9000, -88.740
1460.0000, -86.574
1460.1000, -86.567
1460.2000, -89.170
1460.3000, -81.397
1460.4000, -86.470
1460.5000, -85.500
1460.6000,-210.000
1460.7000,-210.000
1460.8000, -86.203
1460.9000, -82.488
1461.0000, -81.654
1461.1000,-210.000
1461.2000, -84.474
1461.3000, -84.810
1461.4000, -90.096
1461.5000, -82.662
1461.6000, -96.036
1461.7000, -83.189
1461.8000, -84.652
1461.9000, -93.737
1462.0000, -81.532
1462.1000, -88.935
1462.2000, -85.779
1462.3000, -86.880
1462.4000, -91.306
1462.5000, -84.252
1462.6000, -84.699
1462.7000, -84.014
1462.8000, -82.107
1462.9000, -82.995
1463.0000, -96.682
1463.1000, -84.078
1463.2000,-210.000
1463.3000, -82.555
1463.4000, -83.056
1463.5000, -85.702
1463.6000, -88.247
1463.7000,-210.000
1463.8000, -80.159
1463.9000, -87.051
1464.0000,-210.000
1464.1000, -85.438
1464.2000, -82.548
1464.3000, -84.528
1464.4000,-210.000
1464.5000, -82.339
1464.6000,-210.000
1464.7000, -93.980
1464.8000, -84.415
1464.9000, -95.252
1465.0000, -86.378
1465.1000, -84.681
1465.2000, -87.769
1465.3000, -83.619
1465.4000,-210.000
1465.5000, -80.525
1465.6000, -83.341
1465.7000,-210.000
1465.8000, -84.510
1465.9000, -83.709
1466.0000, -91.650
1466.1000, -84.194
1466.2000, -87.657
1466.3000, -95.002
1466.4000,-210.000
1466.5000,-210.000
1466.6000, -83.993
1466.7000, -91.512
1466.8000, -88.205
1466.9000, -81.640
1467.0000, -83.681
1467.1000,-210.000
1467.2000, -83.029
1467.3000, -86.774
1467.4000,-210.000
1467.5000, -84.962
1467.6000,-210.000
1467.7000, -88.706
1467.8000, -99.280
1467.9000, -84.604
1468.0000, -84.006
1468.1000,-210.000
1468.2000, -85.471
1468.3000, -82.425
1468.4000, -85.093
1468.5000, -88.699
1468.6000, -84.730
1468.7000, -87.627
1468.8000, -85.898
1468.9000, -85.654
1469.0000, -86.633
1469.1000, -86.896
1469.2000, -87.663
1469.3000,-210.000
1469.4000, -85.283
1469.5000, -97.328
1469.6000, -85.018
1469.7000, -82.782
1469.8000,-210.000
1469.9000, -84.653
1470.0000, -87.177
1470.1000, -98.247
1470.2000, -83.799
1470.3000, -84.341
1470.4000, -82.589
1470.5000, -89.960
1470.6000, -85.778
1470.7000, -86.163
1470.8000,-210.000
1470.9000, -87.031
1471.0000, -86.545
1471.1000,-102.363
1471.2000, -89.097
1471.3000, -82.948
1471.4000, -89.896
1471.5000, -83.478
1471.6000, -89.388
1471.7000, -82.034
1471.8000, -85.100
1471.9000, -85.796
1472.0000, -93.332
1472.1000, -85.324
1472.2000, -83.066
1472.3000, -84.270
1472.4000, -93.648
1472.5000, -90.631
1472.6000, -85.188
1472.7000, -82.899
1472.8000,-210.000
1472.9000, -93.410
1473.0000, -82.426
1473.1000, -85.690
1473.2000, -84.611
1473.3000, -82.477
1473.4000, -86.018
1473.5000, -82.981
1473.6000,-210.000
1473.7000, -95.596
1473.8000, -86.995
1473.9000, -90.805
1474.0000, -83.638
1474.1000, -87.948
1474.2000, -83.780
1474.3000, -84.090
1474.4000, -84.594
1474.5000, -84.018
1474.6000,-210.000
1474.7000, -87.016
1474.8000, -83.753
1474.9000,-210.000
1475.0000, -84.508
1475.1000, -88.476
1475.2000, -82.778
1475.3000, -84.863
1475.4000, -82.034
1475.5000,-210.000
1475.6000,-210.000
1475.7000, -84.901
1475.8000, -83.901
1475.9000, -82.459
1476.0000,-210.000
1476.1000, -84.840
1476.2000, -91.003
1476.3000, -84.152
1476.4000, -89.904
1476.5000,-210.000
1476.6000, -86.510
1476.7000, -86.256
1476.8000, -86.010
1476.9000,-210.000
1477.0000, -85.043
1477.1000, -85.737
1477.2000, -87.009
1477.3000, -84.840
1477.4000, -85.022
1477.5000, -85.167
1477.6000, -82.185
1477.7000,-210.000
1477.8000, -84.301
1477.9000, -87.558
1478.0000, -86.141
1478.1000, -90.553
1478.2000, -88.226
1478.3000, -85.268
1478.4000, -92.989
1478.5000, -83.118
1478.6000, -84.180
1478.7000, -88.715
1478.8000, -82.746
1478.9000, -88.619
1479.0000, -89.331
1479.1000, -88.670
1479.2000, -92.775
1479.3000, -83.197
1479.4000, -92.343
1479.5000, -87.436
1479.6000, -86.217
1479.7000, -85.745
1479.8000, -84.424
1479.9000, -83.899
1480.0000, -92.870
1480.1000, -87.741
1480.2000, -95.202
1480.3000, -84.074
1480.4000, -87.290
1480.5000, -84.762
1480.6000, -86.035
1480.7000, -87.300
1480.8000, -85.273
1480.9000, -88.509
1481.0000, -85.215
1481.1000,-210.000
1481.2000, -85.912
1481.3000, -85.076
1481.4000, -95.444
1481.5000, -82.872
1481.6000, -94.035
1481.7000, -84.633
1481.8000, -87.409
1481.9000, -87.604
1482.0000, -85.977
1482.1000, -90.455
1482.2000, -85.118
1482.3000, -84.615
1482.4000, -87.863
1482.5000, -85.400
1482.6000, -90.401
1482.7000, -80.742
1482.8000,-210.000
1482.9000, -82.804
1483.0000, -84.736
1483.1000,-210.000
1483.2000, -87.296
1483.3000, -82.780
1483.4000, -89.390
1483.5000, -83.288
1483.6000, -84.198
1483.7000,-210.000
1483.8000, -87.198
1483.9000, -87.561
1484.0000, -82.277
1484.1000, -83.609
1484.2000, -83.797
1484.3000, -89.267
1484.4000, -92.774
1484.5000, -80.590
1484.6000,-210.000
1484.7000, -87.001
1484.8000, -82.274
1484.9000, -83.759
1485.0000, -88.162
1485.1000,-210.000
1485.2000,-210.000
1485.3000, -84.628
1485.4000, -90.621
1485.5000, -84.512
1485.6000, -87.411
1485.7000, -84.072
1485.8000, -84.323
1485.9000, -91.920
1486.0000, -82.350
1486.1000, -85.231
1486.2000, -87.864
1486.3000, -81.458
1486.4000, -89.126
1486.5000, -82.210
1486.6000, -88.114
1486.7000, -88.783
1486.8000, -85.345
1486.9000, -93.407
1487.0000, -83.390
1487.1000, -83.989
1487.2000, -84.599
1487.3000, -90.035
1487.4000, -90.974
1487.5000, -83.548
1487.6000,-210.000
1487.7000,-210.000
1487.8000, -84.922
1487.9000, -81.512
1488.0000, -91.850
1488.1000, -86.190
1488.2000, -81.770
1488.3000, -82.777
1488.4000,-210.000
1488.5000,-210.000
1488.6000, -84.869
1488.7000, -81.638
1488.8000,-210.000
1488.9000, -86.462
1489.0000, -86.349
1489.1000, -90.020
1489.2000, -83.617
1489.3000,-210.000
1489.4000, -87.002
1489.5000, -85.255
1489.6000, -80.690
1489.7000,-210.000
1489.8000, -87.309
1489.9000, -91.351
1490.0000, -82.995
1490.1000,-210.000
1490.2000, -85.595
1490.3000, -83.752
1490.4000, -85.718
1490.5000,-210.000
1490.6000, -88.012
1490.7000, -84.966
1490.8000, -85.564
1490.9000, -86.275
1491.0000, -86.441
1491.1000, -84.716
1491.2000, -82.683
1491.3000, -83.591
1491.4000, -94.315
1491.5000, -85.506
1491.6000, -89.069
1491.7000, -85.269
1491.8000,-210.000
1491.9000, -85.510
1492.0000, -88.541
1492.1000, -87.390
1492.2000, -93.348
1492.3000, -83.732
1492.4000, -82.387
1492.5000, -82.284
1492.6000,-210.000
1492.7000, -92.017
1492.8000, -83.487
1492.9000, -84.771
1493.0000,-210.000
1493.1000, -80.293
1493.2000, -87.566
1493.3000,-210.000
1493.4000, -86.965
1493.5000, -86.082
1493.6000, -84.601
1493.7000, -84.943
1493.8000, -84.673
1493.9000,-210.000
1494.0000, -83.029
1494.1000, -84.615
1494.2000, -84.167
1494.3000, -81.538
1494.4000,-210.000
1494.5000, -84.568
1494.6000, -83.377
1494.7000,-210.000
1494.8000, -82.680
1494.9000, -84.167
1495.0000, -85.697
1495.1000, -85.765
1495.2000, -84.040
1495.3000, -86.172
1495.4000, -87.561
1495.5000, -99.555
1495.6000, -81.194
1495.7000,-210.000
1495.8000, -86.003
1495.9000, -84.538
1496.0000, -81.367
1496.1000, -88.968
1496.2000,-210.000
1496.3000, -94.608
1496.4000, -82.578
1496.5000, -88.507
1496.6000, -93.045
1496.7000, -82.925
1496.8000, -82.391
1496.9000,-210.000
1497.0000, -86.136
1497.1000,-210.000
1497.2000, -78.874
1497.3000,-210.000
1497.4000, -81.228
1497.5000, -85.863
1497.6000,-210.000
1497.7000, -83.611
1497.8000, -82.653
1497.9000, -86.588
1498.0000, -88.062
1498.1000, -83.442
1498.2000,-210.000
1498.3000, -86.174
1498.4000, -84.498
1498.5000, -82.598
1498.6000, -82.730
1498.7000, -98.000
1498.8000, -84.041
1498.9000, -83.901
1499.0000, -88.396
1499.1000, -91.880
1499.2000, -83.206
1499.3000, -87.004
1499.4000, -87.338
1499.5000, -83.875
1499.6000, -83.689
1499.7000, -87.266
1499.8000, -88.521
1499.9000, -84.227
1500.0000, -82.386
1500.1000, -87.361
1500.2000, -87.824
1500.3000, -86.394
1500.4000, -85.557
1500.5000,-109.253
1500.6000, -83.097
1500.7000, -82.504
1500.8000, -90.764
1500.9000, -84.041
1501.0000, -83.087
1501.1000,-210.000
1501.2000, -85.031
1501.3000, -84.830
1501.4000, -82.123
1501.5000,-210.000
1501.6000, -84.180
1501.7000, -86.339
1501.8000, -83.951
1501.9000, -82.581
1502.0000, -85.717
1502.1000, -82.973
1502.2000, -84.266
1502.3000, -84.086
1502.4000,-210.000
1502.5000, -84.896
1502.6000, -82.414
1502.7000, -85.145
1502.8000, -86.256
1502.9000, -84.258
1503.0000, -89.379
1503.1000, -81.883
1503.2000, -80.762
1503.3000, -90.056
1503.4000,-210.000
1503.5000, -81.937
1503.6000, -90.135
1503.7000, -88.160
1503.8000, -83.637
1503.9000, -84.877
1504.0000, -84.212
1504.1000, -81.794
1504.2000, -86.514
1504.3000, -84.895
1504.4000,-210.000
1504.5000, -84.947
1504.6000, -86.947
1504.7000, -83.996
1504.8000, -83.881
1504.9000, -84.827
1505.0000, -92.337
1505.1000, -85.265
1505.2000, -81.399
1505.3000, -84.905
1505.4000,-210.000
1505.5000, -80.550
1505.6000,-103.905
1505.7000, -83.748
1505.8000, -91.443
1505.9000, -91.229
1506.0000, -81.515
1506.1000, -84.813
1506.2000, -81.360
1506.3000, -90.968
1506.4000,-210.000
1506.5000, -84.063
1506.6000, -88.509
1506.7000, -86.611
1506.8000, -84.866
1506.9000, -86.459
1507.0000, -86.075
1507.1000, -85.600
1507.2000, -81.483
1507.3000, -86.932
1507.4000, -84.167
1507.5000, -86.596
1507.6000, -84.071
1507.7000, -84.783
1507.8000, -83.705
1507.9000, -84.251
1508.0000, -86.037
1508.1000, -89.144
1508.2000, -82.268
1508.3000, -90.256
1508.4000, -84.398
1508.5000, -82.928
1508.6000,-210.000
1508.7000, -84.726
1508.8000,-210.000
1508.9000, -84.936
1509.0000, -85.145
1509.1000, -81.969
1509.2000, -95.028
1509.3000, -84.973
1509.4000, -83.623
1509.5000,-210.000
1509.6000, -86.204
1509.7000, -87.432
1509.8000, -82.887
1509.9000, -86.098
1510.0000, -86.349
1510.1000,-210.000
1510.2000, -83.912
1510.3000, -85.135
1510.4000, -85.362
1510.5000, -87.438
1510.6000, -82.934
1510.7000, -87.308
1510.8000, -86.306
1510.9000, -86.227
1511.0000, -90.090
1511.1000, -82.866
1511.2000, -83.637
1511.3000,-210.000
1511.4000, -84.395
1511.5000, -83.528
1511.6000, -85.862
1511.7000, -84.110
1511.8000, -85.029
1511.9000, -91.137
1512.0000, -94.115
1512.1000, -85.111
1512.2000, -93.144
1512.3000, -84.260
1512.4000, -87.166
1512.5000, -84.923
1512.6000, -82.963
1512.7000, -87.239
1512.8000, -85.890
1512.9000, -86.557
1513.0000, -84.903
1513.1000, -85.787
1513.2000, -85.190
1513.3000, -84.426
1513.4000, -88.991
1513.5000, -86.469
1513.6000, -83.744
1513.7000, -82.254
1513.8000, -89.654
1513.9000,-210.000
1514.0000, -85.467
1514.1000, -82.731
1514.2000,-210.000
1514.3000, -83.102
1514.4000, -86.652
1514.5000, -90.128
1514.6000, -84.650
1514.7000, -87.253
1514.8000, -90.528
1514.9000, -86.355
1515.0000, -85.292
1515.1000, -85.765
1515.2000, -86.697
1515.3000, -87.760
1515.4000, -79.993
1515.5000,-210.000
1515.6000, -86.600
1515.7000, -82.201
1515.8000,-210.000
1515.9000, -83.968
1516.0000, -86.215
1516.1000, -81.065
1516.2000, -87.184
1516.3000, -87.618
1516.4000,-210.000
1516.5000, -82.966
1516.6000,-210.000
1516.7000, -84.803
1516.8000, -85.188
1516.9000, -84.058
1517.0000, -82.700
1517.1000,-210.000
1517.2000, -82.662
1517.3000, -86.845
1517.4000, -90.360
1517.5000, -86.186
1517.6000, -85.453
1517.7000, -87.153
1517.8000, -89.514
1517.9000, -82.879
1518.0000, -83.469
1518.1000, -85.088
1518.2000, -87.634
1518.3000,-210.000
1518.4000, -86.483
1518.5000, -83.526
1518.6000, -84.070
1518.7000, -84.812
1518.8000, -86.113
1518.9000, -81.892
1519.0000,-210.000
1519.1000, -85.082
1519.2000, -89.603
1519.3000, -83.802
1519.4000,-210.000
1519.5000, -83.694
1519.6000, -81.606
1519.7000, -86.136
1519.8000, -87.769
1519.9000, -82.681
1520.0000, -87.661
1520.1000, -80.456
1520.2000,-210.000
1520.3000, -87.741
1520.4000, -83.848
1520.5000, -85.645
1520.6000, -82.275
1520.7000, -85.326
1520.8000, -82.568
1520.9000, -92.683
1521.0000,-210.000
1521.1000, -86.745
1521.2000, -80.732
1521.3000,-210.000
1521.4000, -84.358
1521.5000, -85.349
1521.6000, -86.544
1521.7000, -84.914
1521.8000, -87.075
1521.9000, -87.314
1522.0000, -86.221
1522.1000, -82.809
1522.2000, -86.681
1522.3000, -90.643
1522.4000, -81.174
1522.5000, -82.576
1522.6000,-210.000
1522.7000, -81.250
1522.8000,-210.000
1522.9000,-210.000
1523.0000, -87.324
1523.1000, -87.586
1523.2000, -82.043
1523.3000,-210.000
1523.4000, -84.555
1523.5000, -88.461
1523.6000, -85.547
1523.7000, -85.731
1523.8000, -86.250
1523.9000, -84.566
1524.0000, -85.440
1524.1000, -91.868
1524.2000, -81.040
1524.3000,-210.000
1524.4000, -81.822
1524.5000,-210.000
1524.6000, -82.774
1524.7000, -81.146
1524.8000, -85.997
1524.9000,-210.000
1525.0000, -85.461
1525.1000, -85.014
1525.2000, -85.117
1525.3000, -79.461
1525.4000,-210.000
1525.5000, -86.321
1525.6000, -83.007
1525.7000, -84.284
1525.8000, -85.072
1525.9000,-210.000
1526.0000, -84.516
1526.1000,-103.679
1526.2000, -87.022
1526.3000, -81.186
1526.4000,-210.000
1526.5000, -82.869
1526.6000, -83.833
1526.7000, -86.970
1526.8000, -82.124
1526.9000, -85.732
1527.0000, -84.214
1527.1000, -84.478
1527.2000, -89.661
1527.3000, -89.239
1527.4000, -84.075
1527.5000, -81.592
1527.6000, -86.585
1527.7000, -85.319
1527.8000, -82.461
1527.9000, -84.589
1528.0000,-210.000
1528.1000, -89.594
1528.2000, -85.075
1528.3000, -82.619
1528.4000, -83.211
1528.5000,-210.000
1528.6000, -80.644
1528.7000, -85.079
1528.8000,-210.000
1528.9000, -89.181
1529.0000, -83.954
1529.1000, -87.156
1529.2000, -82.267
1529.3000, -82.854
1529.4000, -92.176
1529.5000, -84.052
1529.6000,-210.000
1529.7000, -82.661
1529.8000, -89.390
1529.9000, -88.142
1530.0000, -84.548
1530.1000, -84.406
1530.2000, -83.289
1530.3000, -85.196
1530.4000, -90.594
1530.5000, -96.719
1530.6000, -82.399
1530.7000, -86.041
1530.8000, -83.374
1530.9000,-210.000
1531.0000, -81.472
1531.1000, -82.232
1531.2000, -84.961
1531.3000, -86.808
1531.4000, -84.336
1531.5000, -86.717
1531.6000, -85.628
1531.7000, -85.218
1531.8000, -82.646
1531.9000, -83.237
1532.0000,-210.000
1532.1000, -85.679
1532.2000,-210.000
1532.3000, -82.601
1532.4000, -91.455
1532.5000, -89.885
1532.6000, -85.307
1532.7000, -89.545
1532.8000, -81.948
1532.9000, -87.316
1533.0000, -82.575
1533.1000, -88.269
1533.2000, -84.641
1533.3000, -83.427
1533.4000, -85.909
1533.5000, -86.888
1533.6000, -86.972
1533.7000, -84.295
1533.8000, -83.513
1533.9000, -82.092
1534.0000, -86.841
1534.1000, -82.640
1534.2000, -86.786
1534.3000, -87.935
1534.4000, -86.552
1534.5000, -85.013
1534.6000, -83.262
1534.7000, -83.962
1534.8000, -88.086
1534.9000, -83.729
1535.0000, -97.812
1535.1000, -83.801
1535.2000, -83.187
1535.3000, -87.667
1535.4000, -85.011
1535.5000, -84.088
1535.6000, -86.218
1535.7000, -83.126
1535.8000, -89.203
1535.9000, -82.946
1536.0000, -86.257
1536.1000, -85.766
1536.2000, -91.846
1536.3000, -90.447
1536.4000, -85.645
1536.5000, -83.515
1536.6000, -85.236
1536.7000, -90.695
1536.8000, -84.522
1536.9000, -85.205
1537.0000, -89.195
1537.1000, -84.089
1537.2000, -82.722
1537.3000, -86.841
1537.4000, -90.982
1537.5000, -84.352
1537.6000, -82.481
1537.7000, -84.695
1537.8000, -86.509
1537.9000, -84.292
1538.0000, -83.381
1538.1000, -86.592
1538.2000, -86.353
1538.3000, -86.298
1538.4000, -82.741
1538.5000, -88.220
1538.6000, -83.428
1538.7000, -88.282
1538.8000, -82.933
1538.9000, -85.301
1539.0000,-210.000
1539.1000, -88.763
1539.2000, -83.337
1539.3000, -83.096
1539.4000, -85.364
1539.5000, -85.578
1539.6000, -81.791
1539.7000, -93.736
1539.8000, -87.472
1539.9000, -83.122
1540.0000, -89.193
1540.1000, -84.912
1540.2000, -83.114
1540.3000, -84.283
1540.4000,-210.000
1540.5000, -86.901
1540.6000, -88.634
1540.7000, -82.622
1540.8000, -82.449
1540.9000, -85.484
1541.0000, -82.270
1541.1000, -85.109
1541.2000, -87.234
1541.3000, -84.116
1541.4000, -82.138
1541.5000, -83.641
1541.6000, -91.527
1541.7000, -84.556
1541.8000, -83.790
1541.9000, -88.338
1542.0000, -86.778
1542.1000, -85.291
1542.2000, -85.443
1542.3000, -84.468
1542.4000, -83.462
1542.5000, -84.959
1542.6000, -81.858
1542.7000,-210.000
1542.8000, -85.002
1542.9000, -98.166
1543.0000, -82.166
1543.1000, -84.070
1543.2000,-210.000
1543.3000, -82.801
1543.4000, -84.100
1543.5000, -84.167
1543.6000, -83.912
1543.7000,-210.000
1543.8000, -82.306
1543.9000, -85.515
1544.0000,-210.000
1544.1000, -83.689
1544.2000, -91.978
1544.3000, -81.620
1544.4000, -83.956
1544.5000,-210.000
1544.6000, -82.985
1544.7000, -92.460
1544.8000, -83.227
1544.9000, -88.742
1545.0000, -82.621
1545.1000, -81.704
1545.2000, -95.311
1545.3000,-210.000
1545.4000, -85.118
1545.5000, -85.815
1545.6000, -86.035
1545.7000, -82.032
1545.8000, -85.442
1545.9000,-210.000
1546.0000, -83.251
1546.1000, -87.133
1546.2000, -85.539
1546.3000, -87.896
1546.4000, -84.326
1546.5000, -83.778
1546.6000, -85.305
1546.7000, -87.355
1546.8000, -85.113
1546.9000, -88.540
1547.0000, -83.183
1547.1000, -81.315
1547.2000, -91.479
1547.3000,-210.000
1547.4000, -88.616
1547.5000, -82.962
1547.6000, -86.653
1547.7000, -85.909
1547.8000, -82.934
1547.9000, -84.345
1548.0000, -87.964
1548.1000, -85.782
1548.2000, -82.379
1548.3000,-102.205
1548.4000, -86.218
1548.5000, -84.223
1548.6000,-210.000
1548.7000, -85.891
1548.8000, -82.834
1548.9000, -83.517
1549.0000, -90.446
1549.1000, -85.665
1549.2000, -89.467
1549.3000, -83.320
1549.4000, -85.929
1549.5000, -96.208
1549.6000, -86.992
1549.7000, -81.444
1549.8000,-210.000
1549.9000, -84.418
1550.0000, -91.213
1550.1000, -83.276
1550.2000, -88.734
1550.3000, -85.060
1550.4000, -86.938
1550.5000, -86.030
1550.6000, -84.918
1550.7000, -85.286
1550.8000, -85.027
1550.9000, -88.061
1551.0000, -83.071
1551.1000, -86.133
1551.2000, -84.096
1551.3000, -85.486
1551.4000, -84.240
1551.5000, -87.202
1551.6000, -82.490
1551.7000, -84.119
1551.8000, -83.035
1551.9000, -83.179
1552.0000,-210.000
1552.1000, -80.599
1552.2000, -86.763
1552.3000, -83.741
1552.4000, -83.136
1552.5000, -86.768
1552.6000, -86.630
1552.7000, -85.535
1552.8000, -85.553
1552.9000, -83.937
1553.0000, -83.048
1553.1000,-210.000
1553.2000, -81.266
1553.3000, -87.632
1553.4000, -85.076
1553.5000, -83.600
1553.6000,-210.000
1553.7000, -86.210
1553.8000, -82.619
1553.9000, -84.525
1554.0000, -85.359
1554.1000, -93.003
1554.2000, -81.682
1554.3000, -94.053
1554.4000, -97.928
1554.5000, -89.630
1554.6000, -87.378
1554.7000, -83.512
1554.8000, -87.696
1554.9000, -82.552
1555.0000, -84.125
1555.1000, -95.189
1555.2000, -84.440
1555.3000, -85.161
1555.4000, -82.096
1555.5000, -86.268
1555.6000, -86.959
1555.7000, -82.319
1555.8000, -89.539
1555.9000, -84.944
1556.0000, -91.015
1556.1000, -86.309
1556.2000, -83.712
1556.3000, -87.088
1556.4000, -83.680
1556.5000, -86.256
1556.6000,-210.000
1556.7000, -83.538
1556.8000, -83.724
1556.9000, -84.993
1557.0000, -83.837
1557.1000, -83.577
1557.2000, -86.490
1557.3000, -87.019
1557.4000, -83.917
1557.5000, -81.029
1557.6000,-210.000
1557.7000, -88.794
1557.8000, -82.421
1557.9000, -89.423
1558.0000, -86.204
1558.1000, -83.118
1558.2000,-210.000
1558.3000, -82.723
1558.4000, -85.758
1558.5000, -86.955
1558.6000, -81.993
1558.7000,-210.000
1558.8000, -85.585
1558.9000, -85.603
1559.0000, -88.546
1559.1000, -88.401
1559.2000, -87.428
1559.3000, -84.433
1559.4000, -84.364
1559.5000, -87.563
1559.6000, -90.220
1559.7000, -88.260
1559.8000, -83.508
1559.9000, -86.525
1560.0000, -83.989
1560.1000, -95.509
1560.2000, -82.592
1560.3000, -84.464
1560.4000,-210.000
1560.5000, -86.097
1560.6000, -84.113
1560.7000, -84.962
1560.8000, -84.380
1560.9000, -82.887
1561.0000, -81.886
1561.1000, -83.602
1561.2000,-210.000
1561.3000, -81.664
1561.4000, -89.103
1561.5000, -88.829
1561.6000, -85.949
1561.7000, -91.133
1561.8000, -82.856
1561.9000, -88.748
1562.0000, -82.148
1562.1000, -83.769
1562.2000, -88.368
1562.3000, -85.471
1562.4000, -82.535
1562.5000, -88.201
1562.6000, -84.908
1562.7000, -81.676
1562.8000, -84.607
1562.9000,-210.000
1563.0000, -85.272
1563.1000, -92.881
1563.2000, -82.850
1563.3000, -90.004
1563.4000, -82.270
1563.5000, -85.905
1563.6000, -87.569
1563.7000, -81.976
1563.8000, -88.480
1563.9000, -82.969
1564.0000, -86.480
1564.1000, -83.386
1564.2000, -82.956
1564.3000, -85.276
1564.4000, -86.829
1564.5000, -88.952
1564.6000, -81.865
1564.7000, -83.338
1564.8000,-210.000
1564.9000, -84.544
1565.0000, -86.353
1565.1000, -85.810
1565.2000, -86.021
1565.3000, -85.176
1565.4000, -84.639
1565.5000, -84.275
1565.6000, -90.675
1565.7000, -84.894
1565.8000, -83.762
1565.9000,-210.000
1566.0000, -83.292
1566.1000, -85.013
1566.2000,-210.000
1566.3000, -85.329
1566.4000, -82.721
1566.5000, -80.191
1566.6000,-210.000
1566.7000,-210.000
1566.8000, -80.942
1566.9000, -84.035
1567.0000, -89.457
1567.1000, -83.495
1567.2000, -91.811
1567.3000, -83.039
1567.4000, -85.525
1567.5000, -82.554
1567.6000, -90.727
1567.7000, -85.199
1567.8000, -90.686
1567.9000, -81.997
1568.0000, -90.401
1568.1000, -85.322
1568.2000, -82.466
1568.3000,-210.000
1568.4000, -81.424
1568.5000, -84.763
1568.6000, -87.751
1568.7000, -85.254
1568.8000, -89.426
1568.9000, -86.386
1569.0000, -88.219
1569.1000, -82.666
1569.2000, -89.893
1569.3000, -87.595
1569.4000, -84.400
1569.5000, -83.860
1569.6000, -86.269
1569.7000, -82.782
1569.8000, -82.241
1569.9000, -86.888
1570.0000, -86.676
1570.1000, -81.697
1570.2000, -89.509
1570.3000, -82.681
1570.4000, -83.020
1570.5000,-210.000
1570.6000, -81.880
1570.7000, -84.867
1570.8000,-210.000
1570.9000,-210.000
1571.0000, -81.282
1571.1000, -84.305
1571.2000, -81.466
1571.3000,-210.000
1571.4000, -82.093
1571.5000, -87.041
1571.6000, -85.380
1571.7000, -82.766
1571.8000, -96.931
1571.9000, -81.601
1572.0000, -88.295
1572.1000, -84.318
1572.2000, -84.464
1572.3000, -83.836
1572.4000, -90.228
1572.5000, -85.644
1572.6000, -82.865
1572.7000, -86.711
1572.8000, -82.113
1572.9000,-210.000
1573.0000, -83.624
1573.1000, -82.990
1573.2000, -85.392
1573.3000, -80.838
1573.4000, -86.929
1573.5000, -82.262
1573.6000, -84.759
1573.7000,-210.000
1573.8000,-210.000
1573.9000, -85.040
1574.0000, -84.000
1574.1000, -83.293
1574.2000, -83.777
1574.3000, -84.843
1574.4000, -84.197
1574.5000, -87.227
1574.6000, -87.283
1574.7000, -81.310
1574.8000, -84.985
1574.9000, -90.074
1575.0000,-210.000
1575.1000, -84.085
1575.2000, -86.854
1575.3000, -82.565
1575.4000, -83.237
1575.5000, -95.775
1575.6000,-210.000
1575.7000, -84.240
1575.8000, -96.495
1575.9000, -84.028
1576.0000, -83.412
1576.1000, -84.042
1576.2000, -84.965
1576.3000,-210.000
1576.4000, -86.463
1576.5000, -82.382
1576.6000, -89.991
1576.7000, -86.924
1576.8000, -81.284
1576.9000, -84.002
1577.0000, -84.230
1577.1000, -83.539
1577.2000, -85.185
1577.3000, -86.922
1577.4000, -90.753
1577.5000, -83.313
1577.6000, -82.960
1577.7000, -86.650
1577.8000, -84.154
1577.9000, -89.305
1578.0000, -81.757
1578.1000, -86.258
1578.2000, -87.900
1578.3000, -84.326
1578.4000, -85.880
1578.5000, -84.656
1578.6000, -85.035
1578.7000,-210.000
1578.8000, -85.350
1578.9000, -83.761
1579.0000, -88.965
1579.1000, -82.260
1579.2000, -89.142
1579.3000, -88.019
1579.4000, -83.266
1579.5000,-210.000
1579.6000, -89.168
1579.7000, -82.280
1579.8000,-210.000
1579.9000, -84.453
1580.0000, -87.493
1580.1000, -82.694
1580.2000, -86.542
1580.3000, -85.623
1580.4000, -81.864
1580.5000,-210.000
1580.6000, -82.580
1580.7000, -90.555
1580.8000,-113.349
1580.9000, -82.133
1581.0000, -98.153
1581.1000, -86.149
1581.2000,-210.000
1581.3000, -85.411
1581.4000, -82.830
1581.5000, -87.557
1581.6000, -82.307
1581.7000, -87.987
1581.8000, -90.126
1581.9000, -82.390
1582.0000, -86.126
1582.1000, -89.135
1582.2000, -80.889
1582.3000,-210.000
1582.4000, -85.401
1582.5000, -87.712
1582.6000, -91.231
1582.7000, -86.694
1582.8000, -87.701
1582.9000, -86.483
1583.0000, -84.238
1583.1000, -88.835
1583.2000, -81.254
1583.3000,-210.000
1583.4000, -80.427
1583.5000,-210.000
1583.6000, -86.356
1583.7000, -81.418
1583.8000, -85.910
1583.9000,-210.000
1584.0000, -85.019
1584.1000, -81.995
1584.2000,-210.000
1584.3000, -84.404
1584.4000, -82.720
1584.5000, -89.303
1584.6000, -83.211
1584.7000, -88.565
1584.8000, -88.136
1584.9000, -85.864
1585.0000, -81.424
1585.1000, -86.392
1585.2000, -87.529
1585.3000, -86.206
1585.4000,-210.000
1585.5000, -82.710
1585.6000, -83.576
1585.7000, -86.311
1585.8000, -87.587
1585.9000,-210.000
1586.0000, -88.037
1586.1000, -85.567
1586.2000, -82.997
1586.3000, -92.730
1586.4000, -88.293
1586.5000, -82.768
1586.6000, -84.563
1586.7000, -84.425
1586.8000, -87.923
1586.9000, -86.505
1587.0000, -86.544
1587.1000, -87.202
1587.2000, -81.580
1587.3000, -85.840
1587.4000, -90.950
1587.5000, -83.855
1587.6000, -83.410
1587.7000,-210.000
1587.8000, -81.849
1587.9000, -82.704
1588.0000, -83.750
1588.1000, -91.935
1588.2000, -85.638
1588.3000, -84.533
1588.4000, -86.688
1588.5000, -85.564
1588.6000, -87.690
1588.7000, -91.254
1588.8000, -86.172
1588.9000, -87.369
1589.0000, -84.878
1589.1000, -84.287
1589.2000, -84.114
1589.3000, -82.666
1589.4000, -81.946
1589.5000,-210.000
1589.6000, -81.767
1589.7000, -82.575
1589.8000,-210.000
1589.9000, -84.817
1590.0000,-210.000
1590.1000, -85.274
1590.2000, -82.492
1590.3000, -83.953
1590.4000,-210.000
1590.5000, -82.642
1590.6000, -91.503
1590.7000, -88.689
1590.8000, -86.153
1590.9000, -86.101
1591.0000, -81.990
1591.1000, -84.278
1591.2000, -88.514
1591.3000, -86.681
1591.4000, -83.421
1591.5000, -93.699
1591.6000, -86.904
1591.7000, -85.121
1591.8000,-210.000
1591.9000, -87.448
1592.0000, -84.740
1592.1000, -84.008
1592.2000, -86.924
1592.3000, -87.170
1592.4000, -84.042
1592.5000, -83.297
1592.6000, -84.005
1592.7000, -87.475
1592.8000,-210.000
1592.9000, -83.952
1593.0000, -89.374
1593.1000, -93.488
1593.2000, -82.113
1593.3000, -83.278
1593.4000, -86.827
1593.5000, -83.536
1593.6000, -89.442
1593.7000, -87.106
1593.8000, -82.534
1593.9000,-210.000
1594.0000, -83.738
1594.1000, -84.681
1594.2000, -83.654
1594.3000,-210.000
1594.4000, -86.170
1594.5000, -82.686
1594.6000, -87.424
1594.7000, -84.226
1594.8000, -82.685
1594.9000, -81.102
1595.0000,-210.000
1595.1000, -83.034
1595.2000, -84.626
1595.3000, -80.875
1595.4000,-210.000
1595.5000, -89.898
1595.6000, -87.409
1595.7000, -85.050
1595.8000,-210.000
1595.9000, -81.490
1596.0000, -90.502
1596.1000, -88.110
1596.2000, -83.872
1596.3000, -88.927
1596.4000, -82.005
1596.5000, -91.950
1596.6000, -86.476
1596.7000, -85.510
1596.8000, -81.952
1596.9000, -82.545
1597.0000, -82.179
1597.1000, -88.167
1597.2000, -87.547
1597.3000, -82.564
1597.4000, -84.469
1597.5000, -82.728
1597.6000,-210.000
1597.7000, -84.550
1597.8000,-210.000
1597.9000, -80.127
1598.0000, -92.023
1598.1000,-210.000
1598.2000, -82.814
1598.3000,-210.000
1598.4000, -80.194
1598.5000, -87.511
1598.6000,-210.000
1598.7000, -88.054
1598.8000, -85.273
1598.9000, -82.365
1599.0000,-210.000
1599.1000,-210.000
1599.2000, -85.385
1599.3000, -85.979
1599.4000, -84.503
1599.5000, -85.835
1599.6000, -90.494
1599.7000, -85.209
1599.8000, -90.576
1599.9000, -83.496
1600.0000, -86.739
1600.1000, -96.104
1600.2000, -84.357
1600.3000, -83.788
1600.4000, -86.997
1600.5000, -86.176
1600.6000, -84.183
1600.7000,-210.000
1600.8000, -90.998
1600.9000, -92.523
1601.0000, -86.186
1601.1000, -81.910
1601.2000, -82.911
1601.3000,-210.000
1601.4000, -85.828
1601.5000, -85.464
1601.6000, -85.464
1601.7000, -84.076
1601.8000, -86.865
1601.9000, -86.688
1602.0000, -85.274
1602.1000, -83.514
1602.2000,-210.000
1602.3000, -80.723
1602.4000,-210.000
1602.5000, -87.464
1602.6000, -85.665
1602.7000, -87.636
1602.8000, -81.833
1602.9000, -83.853
1603.0000, -82.705
1603.1000,-210.000
1603.2000, -84.833
1603.3000, -80.985
1603.4000,-100.576
1603.5000, -85.672
1603.6000, -84.380
1603.7000, -82.103
1603.8000, -92.944
1603.9000, -90.745
1604.0000, -84.571
1604.1000, -81.240
1604.2000, -84.894
1604.3000, -85.268
1604.4000, -87.033
1604.5000, -80.235
1604.6000, -83.418
1604.7000,-210.000
1604.8000,-210.000
1604.9000, -79.913
1605.0000,-210.000
1605.1000, -85.512
1605.2000,-210.000
1605.3000,-210.000
1605.4000, -86.464
1605.5000, -82.558
1605.6000,-210.000
1605.7000, -81.436
1605.8000, -88.910
1605.9000,-210.000
1606.0000, -86.057
1606.1000, -82.723
1606.2000, -85.502
1606.3000,-210.000
1606.4000, -81.397
1606.5000,-210.000
1606.6000,-210.000
1606.7000, -84.654
1606.8000, -86.144
1606.9000, -85.864
1607.0000,-210.000
1607.1000, -87.355
1607.2000, -91.048
1607.3000, -88.041
1607.4000, -85.467
1607.5000, -88.574
1607.6000, -90.037
1607.7000, -84.093
1607.8000,-210.000
1607.9000, -80.408
1608.0000,-210.000
1608.1000, -79.149
1608.2000,-210.000
1608.3000, -90.877
1608.4000,-210.000
1608.5000, -84.169
1608.6000,-210.000
1608.7000, -87.260
1608.8000, -83.634
1608.9000, -82.617
1609.0000,-210.000
1609.1000, -83.568
1609.2000, -85.932
1609.3000, -82.668
1609.4000, -94.745
1609.5000, -86.377
1609.6000, -82.735
1609.7000, -88.332
1609.8000, -94.333
1609.9000, -80.673
1610.0000, -92.380
1610.1000, -84.849
1610.2000, -83.397
1610.3000,-103.523
1610.4000, -84.788
1610.5000, -85.154
1610.6000, -80.745
1610.7000,-210.000
1610.8000, -84.642
1610.9000,-210.000
1611.0000, -85.303
1611.1000, -77.918
1611.2000,-210.000
1611.3000, -83.699
1611.4000,-210.000
1611.5000, -82.266
1611.6000,-210.000
1611.7000, -82.900
1611.8000,-210.000
1611.9000, -84.654
1612.0000, -83.180
1612.1000, -87.385
1612.2000, -88.098
1612.3000,-210.000
1612.4000, -87.549
1612.5000,-210.000
1612.6000, -83.225
1612.7000, -88.544
1612.8000, -81.546
1612.9000,-210.000
1613.0000, -84.413
1613.1000, -84.516
1613.2000, -83.985
1613.3000, -91.388
1613.4000, -83.835
1613.5000, -86.900
1613.6000, -82.572
1613.7000,-210.000
1613.8000, -82.191
1613.9000,-111.072
1614.0000, -88.422
1614.1000, -85.258
1614.2000, -84.463
1614.3000, -80.900
1614.4000, -88.308
1614.5000, -86.323
1614.6000, -84.306
1614.7000, -82.110
1614.8000, -88.379
1614.9000, -84.852
1615.0000, -82.649
1615.1000,-210.000
1615.2000, -85.438
1615.3000,-210.000
1615.4000, -84.376
1615.5000, -83.173
1615.6000, -81.759
1615.7000, -85.138
1615.8000, -79.002
1615.9000,-210.000
1616.0000, -84.978
1616.1000, -85.161
1616.2000, -78.919
1616.3000, -84.305
1616.4000, -86.492
1616.5000, -81.290
1616.6000, -80.093
1616.7000, -81.328
1616.8000, -87.994
1616.9000, -80.923
1617.0000, -79.340
1617.1000, -83.799
1617.2000, -81.294
1617.3000, -81.274
1617.4000, -80.690
1617.5000, -81.983
1617.6000, -83.393
1617.7000, -80.806
1617.8000, -79.714
1617.9000, -81.642
1618.0000, -81.075
1618.1000, -79.053
1618.2000, -78.604
1618.3000, -82.156
1618.4000, -78.481
1618.5000, -78.875
1618.6000, -79.090
1618.7000, -81.624
1618.8000, -78.356
1618.9000, -79.359
1619.0000, -77.988
1619.1000, -79.310
1619.2000, -78.883
1619.3000, -78.046
1619.4000, -77.014
1619.5000, -79.971
1619.6000, -77.315
1619.7000, -78.477
1619.8000, -78.298
1619.9000, -78.795
1620.0000, -77.843
1620.1000, -79.313
1620.2000, -84.231
1620.3000, -82.165
1620.4000, -84.884
1620.5000, -81.818
1620.6000, -89.023
1620.7000, -81.777
1620.8000, -87.232
1620.9000, -79.619
1621.0000,-210.000
1621.1000, -84.976
1621.2000, -82.686
1621.3000, -79.804
1621.4000, -83.335
1621.5000, -82.828
1621.6000, -83.282
1621.7000, -92.832
1621.8000, -92.104
1621.9000, -82.563
1622.0000,-210.000
1622.1000, -79.689
1622.2000,-210.000
1622.3000, -81.507
1622.4000,-210.000
1622.5000, -81.875
1622.6000, -84.688
1622.7000, -86.237
1622.8000, -82.416
1622.9000,-210.000
1623.0000, -83.869
1623.1000, -82.132
1623.2000,-210.000
1623.3000, -80.953
1623.4000,-210.000
1623.5000, -79.614
1623.6000,-210.000
1623.7000, -81.403
1623.8000, -87.349
1623.9000, -89.215
1624.0000, -85.842
1624.1000,-210.000
1624.2000, -86.414
1624.3000, -89.207
1624.4000, -88.340
1624.5000, -83.356
1624.6000, -90.167
1624.7000,-210.000
1624.8000, -82.017
1624.9000, -85.627
1625.0000, -92.323
1625.1000,-210.000
1625.2000, -83.918
1625.3000, -82.454
1625.4000,-210.000
1625.5000, -86.747
1625.6000, -84.061
1625.7000, -83.174
1625.8000, -88.071
1625.9000, -84.517
1626.0000, -81.480
1626.1000,-210.000
1626.2000, -78.162
1626.3000,-210.000
1626.4000, -81.067
1626.5000,-210.000
1626.6000, -80.711
1626.7000, -81.354
1626.8000, -90.754
1626.9000,-210.000
1627.0000, -82.755
1627.1000, -79.363
1627.2000,-210.000
1627.3000, -83.112
1627.4000, -84.020
1627.5000, -80.930
1627.6000, -80.536
1627.7000,-210.000
1627.8000, -87.640
1627.9000, -80.967
1628.0000, -84.294
1628.1000, -82.759
1628.2000,-210.000
1628.3000, -86.547
1628.4000, -78.041
1628.5000, -88.927
1628.6000, -91.380
1628.7000, -86.436
1628.8000, -81.129
1628.9000, -83.644
1629.0000, -90.973
1629.1000,-210.000
1629.2000, -83.953
1629.3000, -81.604
1629.4000,-210.000
1629.5000, -83.298
1629.6000, -82.554
1629.7000, -85.635
1629.8000, -78.786
1629.9000,-210.000
1630.0000,-210.000
1630.1000, -79.541
1630.2000, -81.765
1630.3000, -79.665
1630.4000,-210.000
1630.5000,-210.000
1630.6000, -82.876
1630.7000, -80.303
1630.8000, -79.065
1630.9000,-210.000
1631.0000,-210.000
1631.1000, -83.663
1631.2000,-210.000
1631.3000, -80.059
1631.4000, -82.388
1631.5000, -82.797
1631.6000, -94.284
1631.7000, -80.591
1631.8000, -82.426
1631.9000, -87.799
1632.0000,-210.000
1632.1000, -90.030
1632.2000, -79.562
1632.3000, -84.525
1632.4000,-104.190
1632.5000, -82.109
1632.6000, -80.907
1632.7000,-210.000
1632.8000, -81.732
1632.9000,-210.000
1633.0000, -81.539
1633.1000,-210.000
1633.2000, -82.582
1633.3000, -81.042
1633.4000,-210.000
1633.5000,-210.000
1633.6000, -82.937
1633.7000, -82.402
1633.8000, -81.191
1633.9000, -77.213
1634.0000,-210.000
1634.1000,-210.000
1634.2000, -78.745
1634.3000, -86.500
1634.4000, -79.278
1634.5000, -87.759
1634.6000,-101.263
1634.7000, -78.681
1634.8000, -83.887
1634.9000,-210.000
1635.0000,-210.000
1635.1000, -81.034
1635.2000,-210.000
1635.3000, -81.557
1635.4000,-210.000
1635.5000, -81.309
1635.6000, -79.504
1635.7000, -84.255
1635.8000, -88.551
1635.9000, -82.470
1636.0000,-210.000
1636.1000, -78.531
1636.2000, -82.627
1636.3000, -83.525
1636.4000,-210.000
1636.5000,-210.000
1636.6000, -86.680
1636.7000, -78.086
1636.8000,-210.000
1636.9000, -87.556
1637.0000, -82.884
1637.1000, -82.665
1637.2000,-210.000
1637.3000, -79.207
1637.4000, -97.562
1637.5000, -82.522
1637.6000, -78.634
1637.7000, -81.950
1637.8000, -89.322
1637.9000, -78.775
1638.0000, -79.908
1638.1000, -82.665
1638.2000,-210.000
1638.3000, -75.086
1638.4000, -89.102
1638.5000, -86.866
1638.6000, -88.223
1638.7000, -79.257
1638.8000, -90.459
1638.9000, -79.264
1639.0000, -86.564
1639.1000, -90.271
1639.2000, -80.806
1639.3000,-210.000
1639.4000, -78.368
1639.5000,-210.000
1639.6000, -79.903
1639.7000, -81.102
1639.8000, -83.549
1639.9000, -80.853
1640.0000,-210.000
1640.1000, -82.071
1640.2000,-210.000
1640.3000, -81.167
1640.4000, -79.952
1640.5000,-210.000
1640.6000, -87.317
1640.7000, -82.879
1640.8000, -82.259
1640.9000, -80.363
1641.0000, -96.901
1641.1000, -82.401
1641.2000, -79.235
1641.3000, -80.628
1641.4000, -85.447
1641.5000,-210.000
1641.6000, -78.529
1641.7000, -86.758
1641.8000, -79.056
1641.9000, -82.515
1642.0000, -83.699
1642.1000, -95.846
1642.2000, -84.512
1642.3000, -81.145
1642.4000, -82.115
1642.5000,-210.000
1642.6000, -83.206
1642.7000, -79.708
1642.8000, -83.041
1642.9000, -82.011
1643.0000, -81.551
1643.1000, -82.179
1643.2000,-210.000
1643.3000, -82.226
1643.4000, -82.895
1643.5000, -81.826
1643.6000, -79.927
1643.7000, -79.169
1643.8000, -78.547
1643.9000,-210.000
1644.0000, -85.718
1644.1000, -90.352
1644.2000, -78.730
1644.3000, -76.639
1644.4000,-210.000
1644.5000, -75.947
1644.6000,-210.000
1644.7000, -77.404
1644.8000,-210.000
1644.9000, -78.533
1645.0000,-210.000
1645.1000, -81.988
1645.2000, -76.185
1645.3000,-210.000
1645.4000, -77.427
1645.5000, -88.292
1645.6000, -78.813
1645.7000,-210.000
1645.8000, -80.029
1645.9000, -94.183
1646.0000, -80.834
1646.1000, -79.991
1646.2000, -78.788
1646.3000, -83.611
1646.4000, -82.728
1646.5000, -95.623
1646.6000, -81.419
1646.7000, -76.393
1646.8000, -76.116
1646.9000, -77.908
1647.0000,-210.000
1647.1000,-210.000
1647.2000, -85.306
1647.3000, -81.711
1647.4000, -87.380
1647.5000, -76.673
1647.6000, -79.473
1647.7000, -77.591
1647.8000, -78.184
1647.9000,-210.000
1648.0000, -75.657
1648.1000,-210.000
1648.2000, -89.711
1648.3000,-210.000
1648.4000, -75.668
1648.5000, -77.816
1648.6000, -84.926
1648.7000, -77.246
1648.8000, -83.962
1648.9000,-210.000
1649.0000, -80.321
1649.1000, -79.844
1649.2000, -77.388
1649.3000,-210.000
1649.4000,-210.000
1649.5000, -74.802
1649.6000,-210.000
1649.7000, -80.062
1649.8000, -88.117
1649.9000,-210.000
1650.0000, -83.119
1650.1000, -77.256
1650.2000, -77.924
1650.3000, -87.277
1650.4000, -79.212
1650.5000, -77.698
1650.6000, -78.080
1650.7000,-210.000
1650.8000, -81.175
1650.9000, -78.592
1651.0000, -80.331
1651.1000,-210.000
1651.2000, -76.345
1651.3000, -77.465
1651.4000, -83.820
1651.5000, -77.701
1651.6000, -76.709
1651.7000,-210.000
1651.8000, -74.240
1651.9000,-210.000
1652.0000, -80.974
1652.1000, -84.660
1652.2000, -78.660
1652.3000, -80.062
1652.4000, -75.773
1652.5000, -82.446
1652.6000, -79.482
1652.7000, -78.600
1652.8000, -80.779
1652.9000,-210.000
1653.0000, -80.400
1653.1000, -86.562
1653.2000, -76.988
1653.3000, -77.346
1653.4000, -79.300
1653.5000,-210.000
1653.6000, -84.323
1653.7000, -73.672
1653.8000, -83.265
1653.9000, -82.727
1654.0000, -73.630
1654.1000, -78.566
1654.2000, -79.413
1654.3000, -86.975
1654.4000, -85.345
1654.5000, -78.697
1654.6000,-210.000
1654.7000, -77.726
1654.8000, -74.598
1654.9000, -77.707
1655.0000,-210.000
1655.1000, -78.021
1655.2000, -74.953
1655.3000, -75.367
1655.4000, -78.300
1655.5000, -77.111
1655.6000,-210.000
1655.7000, -74.553
1655.8000, -80.907
1655.9000, -75.262
1656.0000,-210.000
1656.1000, -80.375
1656.2000, -74.609
1656.3000,-210.000
1656.4000, -74.564
1656.5000,-210.000
1656.6000, -82.239
1656.7000, -73.667
1656.8000,-210.000
1656.9000, -79.686
1657.0000, -73.228
1657.1000,-210.000
1657.2000, -76.572
1657.3000, -75.808
1657.4000,-210.000
1657.5000, -75.550
1657.6000, -81.159
1657.7000, -92.500
1657.8000, -81.836
1657.9000, -76.538
1658.0000, -82.224
1658.1000, -79.391
1658.2000, -75.711
1658.3000, -76.886
1658.4000, -80.548
1658.5000,-210.000
1658.6000, -83.384
1658.7000, -81.520
1658.8000, -87.236
1658.9000, -80.496
1659.0000,-210.000
1659.1000, -78.380
1659.2000, -77.532
1659.3000, -74.099
1659.4000, -78.239
1659.5000, -79.255
1659.6000,-210.000
1659.7000,-210.000
1659.8000, -71.353
1659.9000, -84.830
1660.0000,-210.000
1660.1000, -74.199
1660.2000,-210.000
1660.3000, -77.847
1660.4000, -78.872
1660.5000, -73.001
1660.6000,-210.000
1660.7000, -73.315
1660.8000,-210.000
1660.9000, -75.509
1661.0000,-210.000
1661.1000, -72.209
1661.2000, -73.866
1661.3000,-210.000
1661.4000, -75.831
1661.5000, -74.951
1661.6000, -74.497
1661.7000,-210.000
1661.8000, -76.638
1661.9000, -76.246
1662.0000,-210.000
1662.1000,-210.000
1662.2000, -73.429
1662.3000,-210.000
1662.4000, -74.373
1662.5000, -74.605
1662.6000,-210.000
1662.7000, -72.646
1662.8000,-210.000
1662.9000,-210.000
1663.0000, -75.811
1663.1000, -73.563
1663.2000, -98.766
1663.3000, -74.826
1663.4000, -80.226
1663.5000, -76.932
1663.6000, -76.929
1663.7000, -80.024
1663.8000, -79.117
1663.9000, -74.256
1664.0000, -78.928
1664.1000, -87.828
1664.2000,-210.000
1664.3000, -78.542
1664.4000, -79.771
1664.5000, -77.103
1664.6000,-210.000
1664.7000, -72.800
1664.8000, -77.840
1664.9000, -73.413
1665.0000,-210.000
1665.1000, -78.246
1665.2000,-210.000
1665.3000, -81.206
1665.4000,-210.000
1665.5000, -79.702
1665.6000, -72.215
1665.7000, -73.288
1665.8000, -74.461
1665.9000, -78.657
1666.0000, -76.035
1666.1000, -72.569
1666.2000, -73.781
1666.3000,-210.000
1666.4000, -72.571
1666.5000,-210.000
1666.6000, -74.883
1666.7000,-210.000
1666.8000, -72.252
1666.9000,-210.000
1667.0000, -72.662
1667.1000,-210.000
1667.2000, -75.053
1667.3000, -73.202
1667.4000, -73.943
1667.5000, -74.045
1667.6000,-210.000
1667.7000, -72.097
1667.8000, -75.891
1667.9000, -90.857
1668.0000, -73.833
1668.1000, -74.128
1668.2000, -70.209
1668.3000, -69.805
1668.4000,-210.000
1668.5000, -70.314
1668.6000,-210.000
1668.7000,-210.000
1668.8000, -98.224
1668.9000, -72.281
1669.0000,-210.000
1669.1000, -69.949
1669.2000, -73.717
1669.3000,-210.000
1669.4000, -73.285
1669.5000, -71.986
1669.6000,-210.000
1669.7000, -68.972
1669.8000,-210.000
1669.9000, -72.616
1670.0000, -73.520
1670.1000,-210.000
1670.2000, -72.276
1670.3000, -74.147
1670.4000, -75.565
1670.5000, -74.403
1670.6000,-210.000
1670.7000, -67.971
1670.8000,-210.000
1670.9000, -74.888
1671.0000,-210.000
1671.1000, -78.781
1671.2000, -73.285
1671.3000, -91.349
1671.4000,-210.000
1671.5000, -72.710
1671.6000, -72.244
1671.7000, -75.144
1671.8000, -72.738
1671.9000, -76.589
1672.0000, -76.008
1672.1000, -74.846
1672.2000,-210.000
1672.3000, -79.876
1672.4000, -77.657
1672.5000, -68.734
1672.6000,-210.000
1672.7000, -71.488
1672.8000, -70.280
1672.9000, -74.834
1673.0000, -72.520
1673.1000,-210.000
1673.2000, -76.014
1673.3000, -77.998
1673.4000,-210.000
1673.5000,-210.000
1673.6000, -76.831
1673.7000, -72.613
1673.8000, -68.816
1673.9000,-210.000
1674.0000, -70.665
1674.1000,-210.000
1674.2000, -73.222
1674.3000, -75.181
1674.4000,-210.000
1674.5000, -70.779
1674.6000, -87.036
1674.7000,-210.000
1674.8000,-210.000
1674.9000, -69.366
1675.0000, -84.281
1675.1000, -81.380
1675.2000, -73.253
1675.3000, -73.219
1675.4000,-210.000
1675.5000, -70.195
1675.6000,-210.000
1675.7000, -70.195
1675.8000,-210.000
1675.9000, -87.012
1676.0000, -70.863
1676.1000,-210.000
1676.2000, -66.610
1676.3000,-210.000
1676.4000, -69.673
1676.5000,-210.000
1676.6000, -68.388
1676.7000,-210.000
1676.8000, -73.993
1676.9000, -76.175
1677.0000, -80.449
1677.1000, -68.859
1677.2000,-210.000
1677.3000, -67.630
1677.4000,-210.000
1677.5000, -70.824
1677.6000, -81.617
1677.7000,-210.000
1677.8000, -75.184
1677.9000, -71.670
1678.0000,-210.000
1678.1000, -70.271
1678.2000,-210.000
1678.3000, -74.574
1678.4000, -69.949
1678.5000, -72.020
1678.6000,-210.000
1678.7000,-210.000
1678.8000, -71.688
1678.9000, -69.617
1679.0000,-210.000
1679.1000, -67.980
1679.2000,-210.000
1679.3000, -69.071
1679.4000,-210.000
1679.5000, -69.850
1679.6000,-210.000
1679.7000, -70.036
1679.8000, -75.738
1679.9000,-210.000
1680.0000, -74.069
1680.1000, -69.928
1680.2000,-210.000
1680.3000, -83.171
1680.4000, -71.093
1680.5000, -77.918
1680.6000, -74.245
1680.7000, -69.659
1680.8000, -65.300
1680.9000,-210.000
1681.0000,-210.000
1681.1000, -68.050
1681.2000,-210.000
1681.3000, -76.128
1681.4000, -80.445
1681.5000, -86.131
1681.6000, -78.579
1681.7000, -71.127
1681.8000, -68.063
1681.9000,-210.000
1682.0000,-210.000
1682.1000, -71.935
1682.2000, -70.137
1682.3000, -74.127
1682.4000, -77.415
1682.5000,-210.000
1682.6000, -68.311
1682.7000,-210.000
1682.8000, -72.661
1682.9000, -76.443
1683.0000, -68.850
1683.1000, -72.623
1683.2000, -71.469
1683.3000, -71.938
1683.4000, -72.898
1683.5000,-210.000
1683.6000, -68.176
1683.7000, -73.522
1683.8000, -73.189
1683.9000, -74.499
1684.0000, -72.709
1684.1000, -68.862
1684.2000,-210.000
1684.3000, -70.621
1684.4000,-210.000
1684.5000, -70.470
1684.6000, -77.406
1684.7000, -68.493
1684.8000,-210.000
1684.9000, -71.623
1685.0000, -72.819
1685.1000, -69.273
1685.2000, -71.806
1685.3000,-210.000
1685.4000, -71.874
1685.5000,-210.000
1685.6000, -67.071
1685.7000,-210.000
1685.8000, -71.530
1685.9000, -69.865
1686.0000, -68.550
1686.1000, -71.720
1686.2000, -68.447
1686.3000, -72.293
1686.4000, -70.973
1686.5000, -66.777
1686.6000,-210.000
1686.7000, -76.230
1686.8000,-210.000
1686.9000, -70.824
1687.0000, -68.708
1687.1000, -72.448
1687.2000,-210.000
1687.3000, -68.768
1687.4000,-210.000
1687.5000, -73.092
1687.6000, -70.860
1687.7000, -69.586
1687.8000, -77.780
1687.9000, -69.535
1688.0000, -76.393
1688.1000, -76.506
1688.2000, -87.218
1688.3000, -68.951
1688.4000, -75.856
1688.5000, -75.632
1688.6000, -69.225
1688.7000, -80.926
1688.8000, -74.131
1688.9000, -68.938
1689.0000, -77.389
1689.1000, -75.767
1689.2000, -77.378
1689.3000, -66.808
1689.4000, -66.006
1689.5000,-210.000
1689.6000,-210.000
1689.7000, -72.205
1689.8000, -70.448
1689.9000, -72.055
1690.0000, -69.137
1690.1000, -67.910
1690.2000, -68.206
1690.3000, -75.146
1690.4000, -69.143
1690.5000,-210.000
1690.6000, -66.976
1690.7000, -74.274
1690.8000, -69.858
1690.9000, -67.617
1691.0000, -74.761
1691.1000, -70.497
1691.2000, -77.487
1691.3000, -69.177
1691.4000, -70.069
1691.5000, -69.508
1691.6000, -72.257
1691.7000, -69.127
1691.8000, -63.902
1691.9000,-210.000
1692.0000, -66.778
1692.1000,-210.000
1692.2000, -65.338
1692.3000,-210.000
1692.4000,-210.000
1692.5000, -67.154
1692.6000,-210.000
1692.7000, -66.310
1692.8000, -64.858
1692.9000, -71.839
1693.0000,-210.000
1693.1000, -65.991
1693.2000,-210.000
1693.3000,-210.000
1693.4000, -67.446
1693.5000, -69.198
1693.6000, -68.140
1693.7000, -66.476
1693.8000,-210.000
1693.9000, -64.450
1694.0000,-210.000
1694.1000, -76.064
1694.2000, -65.174
1694.3000,-210.000
1694.4000, -72.643
1694.5000, -76.934
1694.6000, -65.543
1694.7000,-210.000
1694.8000, -68.685
1694.9000, -67.439
1695.0000,-210.000
1695.1000, -67.434
1695.2000, -70.777
1695.3000, -68.310
1695.4000, -64.505
1695.5000, -77.154
1695.6000, -67.331
1695.7000, -66.923
1695.8000,-210.000
1695.9000,-210.000
1696.0000, -71.226
1696.1000, -66.942
1696.2000,-210.000
1696.3000,-210.000
1696.4000, -62.799
1696.5000,-210.000
1696.6000, -66.577
1696.7000,-210.000
1696.8000, -70.581
1696.9000, -68.275
1697.0000, -80.780
1697.1000, -72.067
1697.2000, -69.210
1697.3000, -63.858
1697.4000,-210.000
1697.5000, -66.991
1697.6000, -66.693
1697.7000, -66.332
1697.8000,-210.000
1697.9000, -65.488
1698.0000,-210.000
1698.1000, -65.809
1698.2000, -67.016
1698.3000, -68.597
1698.4000,-210.000
1698.5000, -64.517
1698.6000,-210.000
1698.7000, -64.893
1698.8000, -71.013
1698.9000, -65.284
1699.0000,-210.000
1699.1000, -66.300
1699.2000,-210.000
1699.3000, -67.113
1699.4000, -76.771
1699.5000,-210.000
1699.6000, -67.906
1699.7000, -65.206
1699.8000, -68.531
1699.9000,-210.000
1700.0000, -63.970
