70BCSV 	
// AQ6370B OPTICAL SPECTRUM ANALYZER //                 
25
"CTRWL",1475.000000
"SPAN", 350.000000
"START WL",1300.000000
"STOP WL",1650.000000
"WLFREQ", 0
"REFL",-57.7
"LSCL", 5.0
"RESLN",0.500
"AVG",   1
"SMPLAUTO",      1
"SMPL",       3501
"SMPLINTVL",0.1000
"HIGH1"
"MEAS"
"LSUNT",0
"NMSKH","OFF"
"RESCOR",0
"RESPARM", 9740
"FREQPARM", 9740






"[TRACE DATA]"
1300.0000, -78.204
1300.1000, -79.421
1300.2000, -78.174
1300.3000, -79.108
1300.4000, -77.951
1300.5000, -77.499
1300.6000, -78.005
1300.7000, -79.047
1300.8000, -78.850
1300.9000, -76.944
1301.0000, -77.731
1301.1000, -77.454
1301.2000, -78.172
1301.3000, -78.946
1301.4000, -78.888
1301.5000, -78.868
1301.6000, -78.528
1301.7000, -79.344
1301.8000, -79.310
1301.9000, -78.361
1302.0000, -79.976
1302.1000, -79.252
1302.2000, -80.046
1302.3000, -82.530
1302.4000, -83.609
1302.5000, -81.674
1302.6000, -81.749
1302.7000, -82.847
1302.8000, -83.315
1302.9000, -82.437
1303.0000, -85.773
1303.1000, -82.161
1303.2000, -98.116
1303.3000, -82.227
1303.4000, -88.140
1303.5000, -84.509
1303.6000, -83.281
1303.7000, -88.892
1303.8000, -84.311
1303.9000, -80.720
1304.0000, -88.473
1304.1000, -83.264
1304.2000, -81.107
1304.3000, -80.720
1304.4000, -80.552
1304.5000, -80.565
1304.6000, -79.382
1304.7000, -77.991
1304.8000, -77.823
1304.9000, -77.047
1305.0000, -78.248
1305.1000, -76.773
1305.2000, -76.787
1305.3000, -77.286
1305.4000, -76.723
1305.5000, -76.167
1305.6000, -76.102
1305.7000, -76.293
1305.8000, -75.788
1305.9000, -75.824
1306.0000, -76.194
1306.1000, -75.811
1306.2000, -76.494
1306.3000, -75.795
1306.4000, -76.076
1306.5000, -75.577
1306.6000, -76.722
1306.7000, -75.546
1306.8000, -76.724
1306.9000, -75.516
1307.0000, -76.366
1307.1000, -76.532
1307.2000, -76.712
1307.3000, -77.239
1307.4000, -76.784
1307.5000, -77.513
1307.6000, -77.323
1307.7000, -77.620
1307.8000, -77.893
1307.9000, -79.134
1308.0000, -78.808
1308.1000, -82.145
1308.2000, -82.601
1308.3000, -81.745
1308.4000, -81.740
1308.5000, -81.257
1308.6000, -81.734
1308.7000,-102.971
1308.8000, -82.046
1308.9000, -85.806
1309.0000, -86.055
1309.1000, -85.328
1309.2000, -85.549
1309.3000, -85.956
1309.4000, -82.304
1309.5000, -84.653
1309.6000, -82.966
1309.7000, -81.639
1309.8000, -80.617
1309.9000, -82.054
1310.0000, -80.259
1310.1000, -79.203
1310.2000, -81.302
1310.3000, -77.964
1310.4000, -77.971
1310.5000, -76.911
1310.6000, -79.104
1310.7000, -77.162
1310.8000, -77.347
1310.9000, -78.001
1311.0000, -76.719
1311.1000, -76.777
1311.2000, -76.048
1311.3000, -77.233
1311.4000, -75.796
1311.5000, -76.105
1311.6000, -76.188
1311.7000, -76.941
1311.8000, -75.630
1311.9000, -76.363
1312.0000, -75.985
1312.1000, -75.935
1312.2000, -76.747
1312.3000, -76.538
1312.4000, -76.412
1312.5000, -77.199
1312.6000, -76.658
1312.7000, -77.759
1312.8000, -77.168
1312.9000, -77.506
1313.0000, -77.514
1313.1000, -78.151
1313.2000, -78.900
1313.3000, -78.971
1313.4000, -77.998
1313.5000, -79.715
1313.6000, -79.339
1313.7000, -81.006
1313.8000, -79.875
1313.9000, -81.330
1314.0000, -81.383
1314.1000, -87.582
1314.2000, -84.507
1314.3000, -82.337
1314.4000, -85.362
1314.5000, -83.180
1314.6000, -89.543
1314.7000, -81.536
1314.8000, -83.107
1314.9000, -95.181
1315.0000,-210.000
1315.1000, -83.149
1315.2000, -83.956
1315.3000,-210.000
1315.4000, -81.584
1315.5000, -84.604
1315.6000, -80.400
1315.7000, -81.574
1315.8000, -81.166
1315.9000, -82.326
1316.0000, -80.108
1316.1000, -78.888
1316.2000, -80.521
1316.3000, -79.897
1316.4000, -78.718
1316.5000, -78.495
1316.6000, -79.157
1316.7000, -78.725
1316.8000, -77.844
1316.9000, -78.448
1317.0000, -77.039
1317.1000, -77.672
1317.2000, -78.675
1317.3000, -77.156
1317.4000, -78.160
1317.5000, -77.716
1317.6000, -78.453
1317.7000, -76.594
1317.8000, -78.118
1317.9000, -77.588
1318.0000, -77.597
1318.1000, -77.992
1318.2000, -78.739
1318.3000, -78.327
1318.4000, -77.931
1318.5000, -78.506
1318.6000, -79.341
1318.7000, -78.146
1318.8000, -80.040
1318.9000, -79.925
1319.0000, -78.667
1319.1000, -79.992
1319.2000, -80.579
1319.3000, -80.415
1319.4000, -87.641
1319.5000, -81.877
1319.6000, -85.156
1319.7000, -82.823
1319.8000, -81.681
1319.9000, -82.529
1320.0000, -87.474
1320.1000, -81.189
1320.2000, -84.738
1320.3000, -82.933
1320.4000, -86.721
1320.5000, -91.871
1320.6000, -82.689
1320.7000, -86.782
1320.8000, -83.546
1320.9000, -91.510
1321.0000, -85.941
1321.1000, -92.886
1321.2000, -82.089
1321.3000, -84.886
1321.4000, -86.226
1321.5000, -81.287
1321.6000, -81.628
1321.7000, -80.269
1321.8000, -81.183
1321.9000, -80.759
1322.0000, -80.465
1322.1000, -81.003
1322.2000, -80.105
1322.3000, -81.738
1322.4000, -79.551
1322.5000, -78.850
1322.6000, -79.368
1322.7000, -79.121
1322.8000, -78.455
1322.9000, -78.411
1323.0000, -78.297
1323.1000, -79.295
1323.2000, -78.936
1323.3000, -78.391
1323.4000, -79.970
1323.5000, -78.788
1323.6000, -78.404
1323.7000, -78.490
1323.8000, -79.422
1323.9000, -78.041
1324.0000, -78.960
1324.1000, -78.529
1324.2000, -78.569
1324.3000, -78.839
1324.4000, -78.995
1324.5000, -79.551
1324.6000, -81.397
1324.7000, -80.254
1324.8000, -80.625
1324.9000, -79.684
1325.0000, -81.048
1325.1000, -80.836
1325.2000, -79.733
1325.3000, -83.620
1325.4000, -83.592
1325.5000, -80.024
1325.6000, -84.113
1325.7000, -91.006
1325.8000, -82.844
1325.9000, -87.745
1326.0000, -82.949
1326.1000, -83.167
1326.2000, -81.338
1326.3000, -84.467
1326.4000,-210.000
1326.5000, -90.357
1326.6000, -85.288
1326.7000, -87.746
1326.8000, -82.950
1326.9000,-210.000
1327.0000, -83.771
1327.1000, -83.469
1327.2000, -81.635
1327.3000, -88.470
1327.4000, -84.219
1327.5000, -81.628
1327.6000, -81.910
1327.7000, -81.692
1327.8000, -81.703
1327.9000, -81.337
1328.0000, -82.058
1328.1000, -80.550
1328.2000, -79.167
1328.3000, -79.320
1328.4000, -78.821
1328.5000, -79.898
1328.6000, -78.213
1328.7000, -78.831
1328.8000, -77.759
1328.9000, -78.986
1329.0000, -78.208
1329.1000, -79.800
1329.2000, -77.889
1329.3000, -78.156
1329.4000, -78.529
1329.5000, -78.328
1329.6000, -78.465
1329.7000, -77.932
1329.8000, -79.138
1329.9000, -79.279
1330.0000, -78.532
1330.1000, -80.142
1330.2000, -79.437
1330.3000, -79.371
1330.4000, -79.057
1330.5000, -79.484
1330.6000, -80.769
1330.7000, -79.457
1330.8000, -80.253
1330.9000, -81.042
1331.0000, -80.119
1331.1000, -80.529
1331.2000, -83.067
1331.3000, -82.040
1331.4000, -79.942
1331.5000, -81.023
1331.6000, -86.184
1331.7000, -83.412
1331.8000, -87.620
1331.9000, -80.733
1332.0000, -86.162
1332.1000,-210.000
1332.2000, -82.670
1332.3000, -94.317
1332.4000, -93.466
1332.5000, -81.856
1332.6000, -84.559
1332.7000, -85.280
1332.8000, -83.136
1332.9000,-210.000
1333.0000, -81.755
1333.1000, -85.002
1333.2000, -83.083
1333.3000, -80.942
1333.4000, -80.325
1333.5000, -80.705
1333.6000, -80.744
1333.7000, -83.818
1333.8000, -80.256
1333.9000, -79.634
1334.0000, -79.237
1334.1000, -80.504
1334.2000, -79.102
1334.3000, -78.333
1334.4000, -78.617
1334.5000, -78.110
1334.6000, -78.907
1334.7000, -77.523
1334.8000, -78.027
1334.9000, -77.477
1335.0000, -77.459
1335.1000, -78.059
1335.2000, -77.472
1335.3000, -77.038
1335.4000, -77.226
1335.5000, -77.766
1335.6000, -78.102
1335.7000, -77.350
1335.8000, -77.837
1335.9000, -77.901
1336.0000, -79.103
1336.1000, -78.280
1336.2000, -77.858
1336.3000, -77.364
1336.4000, -78.614
1336.5000, -77.945
1336.6000, -79.185
1336.7000, -80.403
1336.8000, -80.215
1336.9000, -79.607
1337.0000, -80.542
1337.1000, -80.149
1337.2000, -82.792
1337.3000, -79.444
1337.4000, -83.870
1337.5000, -81.909
1337.6000, -85.173
1337.7000, -84.086
1337.8000, -88.107
1337.9000, -84.511
1338.0000, -81.008
1338.1000,-210.000
1338.2000, -89.209
1338.3000, -93.480
1338.4000, -85.902
1338.5000, -84.667
1338.6000, -89.699
1338.7000, -93.631
1338.8000, -85.451
1338.9000, -83.974
1339.0000, -80.682
1339.1000, -82.017
1339.2000, -84.516
1339.3000, -82.448
1339.4000, -81.045
1339.5000, -80.601
1339.6000, -80.422
1339.7000, -80.221
1339.8000, -80.668
1339.9000, -79.886
1340.0000, -77.987
1340.1000, -78.897
1340.2000, -78.284
1340.3000, -77.967
1340.4000, -77.424
1340.5000, -77.288
1340.6000, -78.038
1340.7000, -76.863
1340.8000, -78.375
1340.9000, -76.598
1341.0000, -77.431
1341.1000, -76.899
1341.2000, -77.288
1341.3000, -76.735
1341.4000, -76.309
1341.5000, -77.427
1341.6000, -77.806
1341.7000, -77.035
1341.8000, -77.768
1341.9000, -77.809
1342.0000, -76.964
1342.1000, -77.468
1342.2000, -78.281
1342.3000, -77.143
1342.4000, -79.716
1342.5000, -78.178
1342.6000, -79.536
1342.7000, -78.533
1342.8000, -80.691
1342.9000, -79.120
1343.0000, -80.349
1343.1000, -79.918
1343.2000, -79.143
1343.3000, -79.248
1343.4000, -81.826
1343.5000, -81.575
1343.6000, -80.982
1343.7000, -81.825
1343.8000, -82.883
1343.9000, -84.213
1344.0000, -85.288
1344.1000, -85.846
1344.2000, -87.865
1344.3000, -83.949
1344.4000, -83.287
1344.5000,-210.000
1344.6000, -81.915
1344.7000, -85.293
1344.8000, -82.861
1344.9000, -83.347
1345.0000, -84.688
1345.1000, -84.532
1345.2000, -80.970
1345.3000, -83.371
1345.4000, -82.990
1345.5000, -81.496
1345.6000, -81.039
1345.7000, -80.920
1345.8000, -81.330
1345.9000, -79.939
1346.0000, -78.385
1346.1000, -79.936
1346.2000, -77.904
1346.3000, -78.279
1346.4000, -78.164
1346.5000, -77.978
1346.6000, -77.342
1346.7000, -77.674
1346.8000, -76.727
1346.9000, -77.793
1347.0000, -77.023
1347.1000, -77.075
1347.2000, -77.532
1347.3000, -76.343
1347.4000, -77.649
1347.5000, -77.906
1347.6000, -76.734
1347.7000, -78.311
1347.8000, -77.138
1347.9000, -77.719
1348.0000, -77.644
1348.1000, -78.249
1348.2000, -78.692
1348.3000, -77.839
1348.4000, -78.462
1348.5000, -79.641
1348.6000, -78.580
1348.7000, -81.729
1348.8000, -78.124
1348.9000, -80.232
1349.0000, -80.829
1349.1000, -79.263
1349.2000, -79.511
1349.3000, -81.737
1349.4000, -83.488
1349.5000, -81.868
1349.6000, -80.650
1349.7000, -84.677
1349.8000, -85.923
1349.9000,-210.000
1350.0000, -83.462
1350.1000, -83.803
1350.2000, -85.109
1350.3000, -84.039
1350.4000,-210.000
1350.5000, -87.012
1350.6000, -87.763
1350.7000, -85.841
1350.8000, -85.503
1350.9000,-210.000
1351.0000, -82.400
1351.1000, -82.271
1351.2000, -84.139
1351.3000, -82.931
1351.4000, -84.792
1351.5000, -82.342
1351.6000, -81.375
1351.7000, -80.633
1351.8000, -81.262
1351.9000, -81.617
1352.0000, -80.902
1352.1000, -79.258
1352.2000, -79.905
1352.3000, -79.203
1352.4000, -78.915
1352.5000, -79.324
1352.6000, -78.305
1352.7000, -78.301
1352.8000, -79.265
1352.9000, -77.836
1353.0000, -78.506
1353.1000, -77.972
1353.2000, -77.828
1353.3000, -79.077
1353.4000, -77.348
1353.5000, -78.792
1353.6000, -76.888
1353.7000, -78.634
1353.8000, -79.242
1353.9000, -77.782
1354.0000, -78.242
1354.1000, -77.979
1354.2000, -77.988
1354.3000, -78.065
1354.4000, -78.982
1354.5000, -78.448
1354.6000, -79.637
1354.7000, -79.485
1354.8000, -80.206
1354.9000, -80.478
1355.0000, -79.576
1355.1000, -80.760
1355.2000, -81.714
1355.3000, -81.222
1355.4000, -81.806
1355.5000, -85.470
1355.6000, -81.621
1355.7000, -82.680
1355.8000, -85.602
1355.9000, -81.808
1356.0000, -85.971
1356.1000, -87.069
1356.2000, -84.530
1356.3000, -87.677
1356.4000, -85.533
1356.5000, -84.411
1356.6000, -86.258
1356.7000, -88.660
1356.8000, -84.307
1356.9000, -83.706
1357.0000, -86.398
1357.1000, -84.840
1357.2000, -84.430
1357.3000, -82.487
1357.4000, -81.807
1357.5000, -83.661
1357.6000, -83.331
1357.7000, -81.759
1357.8000, -83.948
1357.9000, -81.455
1358.0000, -81.126
1358.1000, -79.084
1358.2000, -79.500
1358.3000, -79.454
1358.4000, -79.086
1358.5000, -79.704
1358.6000, -78.690
1358.7000, -79.020
1358.8000, -77.982
1358.9000, -78.773
1359.0000, -78.084
1359.1000, -78.311
1359.2000, -77.004
1359.3000, -79.239
1359.4000, -77.135
1359.5000, -77.578
1359.6000, -77.534
1359.7000, -79.115
1359.8000, -78.080
1359.9000, -77.701
1360.0000, -77.332
1360.1000, -76.577
1360.2000, -77.999
1360.3000, -77.950
1360.4000, -77.871
1360.5000, -78.352
1360.6000, -78.566
1360.7000, -78.120
1360.8000, -79.732
1360.9000, -78.872
1361.0000, -80.055
1361.1000, -80.133
1361.2000, -81.304
1361.3000, -79.801
1361.4000, -80.473
1361.5000, -81.375
1361.6000, -81.284
1361.7000, -84.980
1361.8000, -80.698
1361.9000, -84.535
1362.0000, -83.462
1362.1000, -81.077
1362.2000, -83.494
1362.3000, -83.389
1362.4000, -83.537
1362.5000, -92.133
1362.6000, -84.675
1362.7000, -84.154
1362.8000, -84.945
1362.9000, -86.260
1363.0000, -84.150
1363.1000, -92.154
1363.2000, -86.234
1363.3000, -87.518
1363.4000, -83.339
1363.5000, -81.837
1363.6000, -82.096
1363.7000, -80.682
1363.8000, -82.907
1363.9000, -81.220
1364.0000, -80.261
1364.1000, -79.777
1364.2000, -81.839
1364.3000, -79.259
1364.4000, -79.248
1364.5000, -78.623
1364.6000, -78.970
1364.7000, -79.535
1364.8000, -78.279
1364.9000, -78.452
1365.0000, -77.458
1365.1000, -77.175
1365.2000, -77.758
1365.3000, -76.405
1365.4000, -76.074
1365.5000, -77.746
1365.6000, -77.230
1365.7000, -76.436
1365.8000, -77.406
1365.9000, -76.441
1366.0000, -76.316
1366.1000, -76.752
1366.2000, -76.285
1366.3000, -76.773
1366.4000, -76.253
1366.5000, -76.386
1366.6000, -76.704
1366.7000, -75.982
1366.8000, -77.381
1366.9000, -76.680
1367.0000, -78.203
1367.1000, -79.007
1367.2000, -78.280
1367.3000, -77.983
1367.4000, -78.056
1367.5000, -78.839
1367.6000, -79.377
1367.7000, -80.512
1367.8000, -80.624
1367.9000, -80.889
1368.0000, -80.302
1368.1000, -80.560
1368.2000, -83.308
1368.3000, -83.397
1368.4000, -84.713
1368.5000, -89.417
1368.6000, -82.763
1368.7000,-210.000
1368.8000, -87.492
1368.9000, -84.570
1369.0000, -82.754
1369.1000, -83.738
1369.2000, -83.850
1369.3000, -84.349
1369.4000, -90.777
1369.5000, -84.321
1369.6000, -82.762
1369.7000, -84.553
1369.8000, -81.138
1369.9000, -80.934
1370.0000, -81.275
1370.1000, -82.111
1370.2000, -80.854
1370.3000, -79.581
1370.4000, -80.689
1370.5000, -79.037
1370.6000, -77.312
1370.7000, -78.315
1370.8000, -78.004
1370.9000, -77.749
1371.0000, -78.220
1371.1000, -76.478
1371.2000, -77.958
1371.3000, -75.847
1371.4000, -76.298
1371.5000, -75.824
1371.6000, -75.665
1371.7000, -75.392
1371.8000, -75.249
1371.9000, -75.178
1372.0000, -75.338
1372.1000, -75.361
1372.2000, -75.937
1372.3000, -75.276
1372.4000, -75.007
1372.5000, -75.085
1372.6000, -75.317
1372.7000, -74.886
1372.8000, -75.345
1372.9000, -75.888
1373.0000, -75.865
1373.1000, -75.981
1373.2000, -75.401
1373.3000, -76.150
1373.4000, -76.507
1373.5000, -77.114
1373.6000, -77.353
1373.7000, -77.445
1373.8000, -77.945
1373.9000, -77.168
1374.0000, -78.469
1374.1000, -79.223
1374.2000, -78.465
1374.3000, -81.164
1374.4000, -79.690
1374.5000, -80.404
1374.6000, -81.433
1374.7000, -79.947
1374.8000, -85.949
1374.9000, -81.474
1375.0000, -85.126
1375.1000, -85.931
1375.2000, -90.282
1375.3000, -84.469
1375.4000, -83.273
1375.5000, -87.392
1375.6000, -83.775
1375.7000, -86.084
1375.8000, -82.726
1375.9000, -84.676
1376.0000, -82.441
1376.1000, -82.664
1376.2000, -81.511
1376.3000, -81.666
1376.4000, -80.247
1376.5000, -78.451
1376.6000, -80.537
1376.7000, -77.648
1376.8000, -77.637
1376.9000, -77.745
1377.0000, -77.263
1377.1000, -76.902
1377.2000, -76.905
1377.3000, -77.144
1377.4000, -75.896
1377.5000, -75.908
1377.6000, -75.399
1377.7000, -75.040
1377.8000, -75.094
1377.9000, -74.939
1378.0000, -74.699
1378.1000, -74.065
1378.2000, -74.385
1378.3000, -74.253
1378.4000, -74.335
1378.5000, -74.723
1378.6000, -74.686
1378.7000, -74.459
1378.8000, -74.678
1378.9000, -75.058
1379.0000, -74.046
1379.1000, -74.665
1379.2000, -74.924
1379.3000, -74.321
1379.4000, -75.259
1379.5000, -75.256
1379.6000, -75.238
1379.7000, -76.030
1379.8000, -75.577
1379.9000, -75.627
1380.0000, -76.296
1380.1000, -76.762
1380.2000, -77.854
1380.3000, -77.350
1380.4000, -79.859
1380.5000, -78.497
1380.6000, -79.842
1380.7000, -80.279
1380.8000, -80.700
1380.9000, -87.203
1381.0000, -81.686
1381.1000, -82.969
1381.2000, -83.895
1381.3000, -81.807
1381.4000, -83.742
1381.5000, -84.628
1381.6000, -83.955
1381.7000, -89.753
1381.8000, -83.803
1381.9000, -82.606
1382.0000, -84.342
1382.1000, -84.172
1382.2000, -83.094
1382.3000, -82.976
1382.4000, -80.374
1382.5000, -80.992
1382.6000, -82.424
1382.7000, -81.953
1382.8000, -79.542
1382.9000, -80.565
1383.0000, -78.569
1383.1000, -78.988
1383.2000, -77.441
1383.3000, -76.677
1383.4000, -76.715
1383.5000, -76.470
1383.6000, -75.841
1383.7000, -75.771
1383.8000, -75.340
1383.9000, -75.205
1384.0000, -74.879
1384.1000, -75.175
1384.2000, -75.176
1384.3000, -74.148
1384.4000, -74.117
1384.5000, -74.015
1384.6000, -73.715
1384.7000, -73.803
1384.8000, -73.867
1384.9000, -73.812
1385.0000, -74.061
1385.1000, -73.670
1385.2000, -74.341
1385.3000, -74.238
1385.4000, -74.030
1385.5000, -73.630
1385.6000, -74.006
1385.7000, -74.448
1385.8000, -74.723
1385.9000, -74.823
1386.0000, -74.612
1386.1000, -75.305
1386.2000, -75.084
1386.3000, -75.527
1386.4000, -75.592
1386.5000, -76.455
1386.6000, -76.982
1386.7000, -78.063
1386.8000, -77.660
1386.9000, -77.618
1387.0000, -78.967
1387.1000, -79.445
1387.2000, -78.343
1387.3000, -80.748
1387.4000, -81.652
1387.5000, -85.449
1387.6000, -81.668
1387.7000, -83.136
1387.8000, -83.506
1387.9000, -88.096
1388.0000, -86.315
1388.1000,-210.000
1388.2000, -83.462
1388.3000, -86.490
1388.4000, -83.812
1388.5000, -81.978
1388.6000, -83.304
1388.7000, -82.211
1388.8000, -82.313
1388.9000, -79.308
1389.0000, -80.827
1389.1000, -79.294
1389.2000, -79.656
1389.3000, -79.282
1389.4000, -77.313
1389.5000, -77.343
1389.6000, -76.479
1389.7000, -76.895
1389.8000, -75.878
1389.9000, -76.741
1390.0000, -75.240
1390.1000, -75.308
1390.2000, -74.758
1390.3000, -74.767
1390.4000, -74.279
1390.5000, -74.498
1390.6000, -74.412
1390.7000, -73.930
1390.8000, -73.535
1390.9000, -73.942
1391.0000, -73.507
1391.1000, -73.710
1391.2000, -73.832
1391.3000, -73.425
1391.4000, -73.510
1391.5000, -73.370
1391.6000, -73.141
1391.7000, -73.452
1391.8000, -73.685
1391.9000, -73.864
1392.0000, -73.953
1392.1000, -74.232
1392.2000, -74.115
1392.3000, -74.688
1392.4000, -75.104
1392.5000, -75.026
1392.6000, -76.192
1392.7000, -75.566
1392.8000, -76.507
1392.9000, -76.517
1393.0000, -76.445
1393.1000, -77.032
1393.2000, -77.099
1393.3000, -77.435
1393.4000, -78.078
1393.5000, -79.831
1393.6000, -79.365
1393.7000, -79.998
1393.8000, -82.199
1393.9000, -81.990
1394.0000, -83.380
1394.1000, -85.393
1394.2000, -83.276
1394.3000, -83.707
1394.4000, -80.693
1394.5000, -87.812
1394.6000, -92.786
1394.7000, -83.018
1394.8000, -84.795
1394.9000, -85.465
1395.0000, -84.100
1395.1000, -82.781
1395.2000, -84.748
1395.3000, -81.727
1395.4000, -79.823
1395.5000, -79.125
1395.6000, -79.638
1395.7000, -80.307
1395.8000, -80.156
1395.9000, -77.057
1396.0000, -77.971
1396.1000, -76.565
1396.2000, -76.435
1396.3000, -77.268
1396.4000, -76.178
1396.5000, -76.305
1396.6000, -75.949
1396.7000, -75.648
1396.8000, -75.427
1396.9000, -74.552
1397.0000, -74.400
1397.1000, -74.185
1397.2000, -74.398
1397.3000, -74.141
1397.4000, -73.968
1397.5000, -74.085
1397.6000, -73.594
1397.7000, -73.821
1397.8000, -73.603
1397.9000, -73.623
1398.0000, -73.462
1398.1000, -73.483
1398.2000, -73.947
1398.3000, -73.792
1398.4000, -73.912
1398.5000, -74.100
1398.6000, -74.578
1398.7000, -74.637
1398.8000, -74.612
1398.9000, -74.874
1399.0000, -75.215
1399.1000, -75.349
1399.2000, -75.078
1399.3000, -76.057
1399.4000, -75.870
1399.5000, -76.934
1399.6000, -77.099
1399.7000, -76.949
1399.8000, -78.462
1399.9000, -78.559
1400.0000, -79.260
1400.1000, -79.108
1400.2000, -78.418
1400.3000, -80.380
1400.4000, -82.382
1400.5000, -81.768
1400.6000, -86.466
1400.7000, -81.278
1400.8000, -82.473
1400.9000, -91.224
1401.0000, -82.806
1401.1000, -85.315
1401.2000, -82.912
1401.3000, -83.074
1401.4000, -98.062
1401.5000, -81.080
1401.6000, -85.396
1401.7000, -82.292
1401.8000, -81.577
1401.9000, -83.525
1402.0000, -78.198
1402.1000, -80.458
1402.2000, -78.102
1402.3000, -79.692
1402.4000, -79.141
1402.5000, -77.915
1402.6000, -77.401
1402.7000, -76.782
1402.8000, -77.046
1402.9000, -76.258
1403.0000, -75.955
1403.1000, -76.511
1403.2000, -75.198
1403.3000, -75.132
1403.4000, -75.224
1403.5000, -75.272
1403.6000, -74.413
1403.7000, -75.253
1403.8000, -74.718
1403.9000, -74.350
1404.0000, -74.391
1404.1000, -74.773
1404.2000, -74.102
1404.3000, -74.899
1404.4000, -74.657
1404.5000, -74.286
1404.6000, -74.357
1404.7000, -74.789
1404.8000, -74.408
1404.9000, -75.314
1405.0000, -75.720
1405.1000, -75.287
1405.2000, -75.724
1405.3000, -76.470
1405.4000, -75.265
1405.5000, -75.431
1405.6000, -75.768
1405.7000, -75.086
1405.8000, -76.405
1405.9000, -76.559
1406.0000, -75.854
1406.1000, -77.326
1406.2000, -77.373
1406.3000, -77.831
1406.4000, -77.847
1406.5000, -78.917
1406.6000, -80.869
1406.7000, -79.790
1406.8000, -79.882
1406.9000, -81.918
1407.0000, -84.183
1407.1000, -81.769
1407.2000, -84.017
1407.3000, -86.412
1407.4000, -85.808
1407.5000, -82.625
1407.6000, -84.452
1407.7000, -85.682
1407.8000, -82.164
1407.9000, -85.331
1408.0000, -84.205
1408.1000, -81.749
1408.2000, -85.553
1408.3000, -80.949
1408.4000, -83.912
1408.5000, -81.741
1408.6000, -80.543
1408.7000, -81.054
1408.8000, -77.963
1408.9000, -81.536
1409.0000, -79.348
1409.1000, -78.506
1409.2000, -79.030
1409.3000, -78.516
1409.4000, -77.440
1409.5000, -78.742
1409.6000, -77.988
1409.7000, -76.939
1409.8000, -76.757
1409.9000, -76.369
1410.0000, -76.199
1410.1000, -76.208
1410.2000, -76.105
1410.3000, -75.140
1410.4000, -76.108
1410.5000, -75.742
1410.6000, -75.320
1410.7000, -75.913
1410.8000, -75.355
1410.9000, -75.736
1411.0000, -75.883
1411.1000, -75.264
1411.2000, -75.282
1411.3000, -75.223
1411.4000, -75.765
1411.5000, -75.709
1411.6000, -75.644
1411.7000, -76.500
1411.8000, -75.922
1411.9000, -76.006
1412.0000, -76.768
1412.1000, -76.029
1412.2000, -77.056
1412.3000, -76.749
1412.4000, -76.460
1412.5000, -77.542
1412.6000, -76.940
1412.7000, -78.564
1412.8000, -78.601
1412.9000, -79.888
1413.0000, -78.193
1413.1000, -80.067
1413.2000, -79.866
1413.3000, -80.236
1413.4000, -80.218
1413.5000, -82.573
1413.6000, -83.496
1413.7000, -81.825
1413.8000, -83.118
1413.9000, -83.847
1414.0000, -89.506
1414.1000, -82.172
1414.2000, -84.682
1414.3000, -91.068
1414.4000, -85.683
1414.5000, -87.507
1414.6000, -86.858
1414.7000, -83.106
1414.8000, -84.435
1414.9000, -82.285
1415.0000, -82.811
1415.1000, -86.656
1415.2000, -82.457
1415.3000, -81.930
1415.4000, -86.313
1415.5000, -80.725
1415.6000, -79.303
1415.7000, -78.907
1415.8000, -79.735
1415.9000, -79.329
1416.0000, -79.051
1416.1000, -77.940
1416.2000, -77.723
1416.3000, -78.329
1416.4000, -77.236
1416.5000, -77.292
1416.6000, -76.762
1416.7000, -76.721
1416.8000, -77.743
1416.9000, -76.800
1417.0000, -76.049
1417.1000, -76.535
1417.2000, -75.233
1417.3000, -76.392
1417.4000, -76.080
1417.5000, -75.985
1417.6000, -76.336
1417.7000, -75.916
1417.8000, -75.961
1417.9000, -75.442
1418.0000, -76.136
1418.1000, -76.392
1418.2000, -75.594
1418.3000, -76.506
1418.4000, -75.570
1418.5000, -76.200
1418.6000, -76.236
1418.7000, -77.263
1418.8000, -77.322
1418.9000, -77.079
1419.0000, -77.255
1419.1000, -76.548
1419.2000, -77.892
1419.3000, -77.588
1419.4000, -77.623
1419.5000, -77.966
1419.6000, -78.785
1419.7000, -79.467
1419.8000, -80.567
1419.9000, -82.392
1420.0000, -80.415
1420.1000, -79.561
1420.2000, -81.895
1420.3000, -84.410
1420.4000, -82.244
1420.5000, -83.913
1420.6000, -86.473
1420.7000, -82.841
1420.8000, -83.165
1420.9000, -83.969
1421.0000, -84.842
1421.1000,-210.000
1421.2000, -84.977
1421.3000, -83.758
1421.4000, -82.059
1421.5000, -84.687
1421.6000, -84.355
1421.7000, -86.492
1421.8000, -84.307
1421.9000, -80.294
1422.0000, -81.897
1422.1000, -84.010
1422.2000, -79.765
1422.3000, -79.922
1422.4000, -79.471
1422.5000, -78.610
1422.6000, -79.225
1422.7000, -78.288
1422.8000, -79.471
1422.9000, -77.678
1423.0000, -77.410
1423.1000, -77.411
1423.2000, -76.753
1423.3000, -76.409
1423.4000, -76.593
1423.5000, -77.428
1423.6000, -76.626
1423.7000, -75.887
1423.8000, -76.424
1423.9000, -76.007
1424.0000, -75.732
1424.1000, -75.538
1424.2000, -75.197
1424.3000, -75.458
1424.4000, -75.536
1424.5000, -75.128
1424.6000, -76.330
1424.7000, -75.390
1424.8000, -75.664
1424.9000, -75.584
1425.0000, -76.233
1425.1000, -75.116
1425.2000, -75.746
1425.3000, -75.689
1425.4000, -75.814
1425.5000, -76.066
1425.6000, -76.327
1425.7000, -75.915
1425.8000, -77.126
1425.9000, -76.223
1426.0000, -77.717
1426.1000, -77.226
1426.2000, -78.727
1426.3000, -77.200
1426.4000, -78.704
1426.5000, -78.219
1426.6000, -80.031
1426.7000, -79.584
1426.8000, -81.296
1426.9000, -81.017
1427.0000, -81.306
1427.1000, -80.085
1427.2000, -81.113
1427.3000, -84.399
1427.4000, -83.772
1427.5000, -84.281
1427.6000, -86.964
1427.7000, -92.280
1427.8000, -81.563
1427.9000, -87.702
1428.0000, -83.129
1428.1000, -88.662
1428.2000, -83.609
1428.3000, -84.763
1428.4000, -81.767
1428.5000, -89.016
1428.6000, -81.745
1428.7000, -81.271
1428.8000, -81.901
1428.9000, -81.076
1429.0000, -81.333
1429.1000, -79.079
1429.2000, -78.655
1429.3000, -80.037
1429.4000, -79.046
1429.5000, -78.792
1429.6000, -77.899
1429.7000, -76.979
1429.8000, -77.327
1429.9000, -77.720
1430.0000, -76.432
1430.1000, -77.053
1430.2000, -76.176
1430.3000, -75.578
1430.4000, -75.294
1430.5000, -75.754
1430.6000, -75.237
1430.7000, -76.103
1430.8000, -75.345
1430.9000, -75.202
1431.0000, -74.758
1431.1000, -74.677
1431.2000, -74.852
1431.3000, -75.195
1431.4000, -75.776
1431.5000, -75.078
1431.6000, -75.308
1431.7000, -74.736
1431.8000, -75.537
1431.9000, -75.031
1432.0000, -75.603
1432.1000, -75.642
1432.2000, -75.791
1432.3000, -76.238
1432.4000, -75.869
1432.5000, -76.241
1432.6000, -76.444
1432.7000, -75.944
1432.8000, -77.294
1432.9000, -76.538
1433.0000, -77.587
1433.1000, -77.342
1433.2000, -78.017
1433.3000, -77.813
1433.4000, -79.455
1433.5000, -78.871
1433.6000, -79.233
1433.7000, -80.518
1433.8000, -80.118
1433.9000, -82.551
1434.0000, -80.885
1434.1000, -80.884
1434.2000, -84.737
1434.3000, -81.920
1434.4000, -88.867
1434.5000, -80.409
1434.6000, -87.909
1434.7000, -87.748
1434.8000, -82.777
1434.9000, -82.713
1435.0000, -83.775
1435.1000, -83.419
1435.2000, -84.036
1435.3000, -83.647
1435.4000, -82.454
1435.5000, -83.849
1435.6000, -82.193
1435.7000, -80.033
1435.8000, -78.981
1435.9000, -80.133
1436.0000, -77.940
1436.1000, -78.620
1436.2000, -79.171
1436.3000, -76.714
1436.4000, -77.825
1436.5000, -77.094
1436.6000, -77.852
1436.7000, -76.418
1436.8000, -76.165
1436.9000, -75.788
1437.0000, -76.531
1437.1000, -75.914
1437.2000, -75.434
1437.3000, -74.741
1437.4000, -75.327
1437.5000, -75.228
1437.6000, -75.154
1437.7000, -74.734
1437.8000, -74.523
1437.9000, -74.299
1438.0000, -74.822
1438.1000, -74.548
1438.2000, -73.659
1438.3000, -74.619
1438.4000, -74.323
1438.5000, -74.727
1438.6000, -74.378
1438.7000, -74.711
1438.8000, -74.065
1438.9000, -75.218
1439.0000, -75.106
1439.1000, -75.265
1439.2000, -75.462
1439.3000, -75.696
1439.4000, -76.217
1439.5000, -75.940
1439.6000, -76.092
1439.7000, -76.880
1439.8000, -76.579
1439.9000, -77.184
1440.0000, -77.284
1440.1000, -77.845
1440.2000, -77.647
1440.3000, -78.494
1440.4000, -78.343
1440.5000, -78.393
1440.6000, -79.824
1440.7000, -80.459
1440.8000, -79.086
1440.9000, -81.368
1441.0000, -83.213
1441.1000, -82.922
1441.2000, -84.399
1441.3000, -82.682
1441.4000, -83.083
1441.5000, -80.592
1441.6000, -92.817
1441.7000, -83.065
1441.8000, -85.371
1441.9000, -89.070
1442.0000, -83.993
1442.1000, -83.320
1442.2000, -81.864
1442.3000, -82.995
1442.4000, -82.592
1442.5000, -82.479
1442.6000, -79.852
1442.7000, -80.909
1442.8000, -79.439
1442.9000, -79.012
1443.0000, -78.824
1443.1000, -79.201
1443.2000, -77.388
1443.3000, -76.770
1443.4000, -77.455
1443.5000, -76.838
1443.6000, -76.493
1443.7000, -75.426
1443.8000, -75.434
1443.9000, -75.725
1444.0000, -75.558
1444.1000, -74.644
1444.2000, -74.981
1444.3000, -75.188
1444.4000, -74.568
1444.5000, -74.746
1444.6000, -74.170
1444.7000, -74.634
1444.8000, -74.362
1444.9000, -73.625
1445.0000, -74.266
1445.1000, -73.640
1445.2000, -74.193
1445.3000, -73.765
1445.4000, -73.519
1445.5000, -74.216
1445.6000, -74.214
1445.7000, -74.199
1445.8000, -74.752
1445.9000, -74.703
1446.0000, -74.490
1446.1000, -74.428
1446.2000, -75.131
1446.3000, -75.127
1446.4000, -75.152
1446.5000, -75.335
1446.6000, -75.452
1446.7000, -76.236
1446.8000, -75.824
1446.9000, -77.001
1447.0000, -76.611
1447.1000, -76.984
1447.2000, -78.851
1447.3000, -77.621
1447.4000, -78.393
1447.5000, -78.766
1447.6000, -80.061
1447.7000, -78.789
1447.8000, -80.053
1447.9000, -80.978
1448.0000, -82.547
1448.1000, -79.800
1448.2000, -83.674
1448.3000, -83.875
1448.4000, -85.278
1448.5000, -85.851
1448.6000, -87.667
1448.7000, -81.396
1448.8000, -84.184
1448.9000, -83.888
1449.0000, -86.250
1449.1000, -84.932
1449.2000, -83.191
1449.3000, -80.091
1449.4000, -80.961
1449.5000, -82.471
1449.6000, -82.092
1449.7000, -78.327
1449.8000, -79.276
1449.9000, -79.089
1450.0000, -78.104
1450.1000, -76.799
1450.2000, -76.556
1450.3000, -77.040
1450.4000, -76.304
1450.5000, -76.045
1450.6000, -75.562
1450.7000, -76.197
1450.8000, -75.369
1450.9000, -75.665
1451.0000, -75.213
1451.1000, -74.448
1451.2000, -74.750
1451.3000, -74.728
1451.4000, -74.263
1451.5000, -74.178
1451.6000, -73.481
1451.7000, -74.012
1451.8000, -73.878
1451.9000, -73.122
1452.0000, -73.259
1452.1000, -73.907
1452.2000, -73.740
1452.3000, -73.153
1452.4000, -73.633
1452.5000, -73.804
1452.6000, -73.827
1452.7000, -73.587
1452.8000, -73.974
1452.9000, -74.114
1453.0000, -74.114
1453.1000, -74.232
1453.2000, -74.223
1453.3000, -74.791
1453.4000, -74.686
1453.5000, -74.810
1453.6000, -75.379
1453.7000, -75.580
1453.8000, -75.610
1453.9000, -76.393
1454.0000, -75.745
1454.1000, -76.504
1454.2000, -76.935
1454.3000, -77.551
1454.4000, -77.930
1454.5000, -78.538
1454.6000, -77.813
1454.7000, -80.179
1454.8000, -79.879
1454.9000, -80.452
1455.0000, -81.882
1455.1000, -82.500
1455.2000, -83.294
1455.3000, -81.407
1455.4000, -83.427
1455.5000, -88.018
1455.6000, -82.628
1455.7000, -83.749
1455.8000, -85.146
1455.9000, -84.841
1456.0000, -83.284
1456.1000, -81.605
1456.2000, -83.713
1456.3000, -84.178
1456.4000, -81.161
1456.5000, -80.661
1456.6000, -82.538
1456.7000, -79.030
1456.8000, -79.026
1456.9000, -78.910
1457.0000, -77.780
1457.1000, -78.763
1457.2000, -77.893
1457.3000, -77.501
1457.4000, -76.135
1457.5000, -76.424
1457.6000, -75.877
1457.7000, -76.532
1457.8000, -75.565
1457.9000, -75.115
1458.0000, -75.081
1458.1000, -74.060
1458.2000, -74.503
1458.3000, -74.013
1458.4000, -74.167
1458.5000, -73.824
1458.6000, -72.758
1458.7000, -73.370
1458.8000, -73.645
1458.9000, -73.213
1459.0000, -72.878
1459.1000, -73.365
1459.2000, -72.726
1459.3000, -72.918
1459.4000, -73.317
1459.5000, -73.396
1459.6000, -72.947
1459.7000, -73.062
1459.8000, -73.706
1459.9000, -73.523
1460.0000, -73.766
1460.1000, -73.674
1460.2000, -74.276
1460.3000, -73.958
1460.4000, -74.571
1460.5000, -74.570
1460.6000, -74.843
1460.7000, -75.555
1460.8000, -74.875
1460.9000, -75.084
1461.0000, -76.374
1461.1000, -76.661
1461.2000, -76.270
1461.3000, -76.619
1461.4000, -77.105
1461.5000, -78.333
1461.6000, -77.789
1461.7000, -78.042
1461.8000, -78.692
1461.9000, -79.603
1462.0000, -79.331
1462.1000, -80.110
1462.2000, -83.931
1462.3000, -81.911
1462.4000, -85.419
1462.5000, -83.244
1462.6000, -81.332
1462.7000, -85.181
1462.8000, -91.346
1462.9000, -86.527
1463.0000, -85.745
1463.1000, -82.986
1463.2000, -88.153
1463.3000, -83.193
1463.4000, -81.020
1463.5000, -82.664
1463.6000, -80.840
1463.7000, -80.180
1463.8000, -81.388
1463.9000, -79.671
1464.0000, -78.879
1464.1000, -77.738
1464.2000, -78.524
1464.3000, -77.143
1464.4000, -76.538
1464.5000, -75.409
1464.6000, -76.405
1464.7000, -75.180
1464.8000, -75.550
1464.9000, -75.175
1465.0000, -74.448
1465.1000, -74.368
1465.2000, -74.065
1465.3000, -74.624
1465.4000, -73.720
1465.5000, -73.891
1465.6000, -73.462
1465.7000, -73.570
1465.8000, -73.485
1465.9000, -72.860
1466.0000, -72.832
1466.1000, -73.096
1466.2000, -72.714
1466.3000, -72.960
1466.4000, -72.961
1466.5000, -73.238
1466.6000, -72.783
1466.7000, -72.578
1466.8000, -72.832
1466.9000, -73.657
1467.0000, -73.161
1467.1000, -73.321
1467.2000, -73.331
1467.3000, -73.379
1467.4000, -73.980
1467.5000, -73.696
1467.6000, -74.228
1467.7000, -74.169
1467.8000, -74.352
1467.9000, -75.119
1468.0000, -74.846
1468.1000, -75.836
1468.2000, -75.359
1468.3000, -76.539
1468.4000, -75.893
1468.5000, -76.971
1468.6000, -76.557
1468.7000, -77.409
1468.8000, -78.549
1468.9000, -77.651
1469.0000, -79.883
1469.1000, -80.104
1469.2000, -81.053
1469.3000, -81.103
1469.4000, -79.848
1469.5000, -82.102
1469.6000, -83.259
1469.7000, -90.740
1469.8000, -82.023
1469.9000, -86.787
1470.0000, -84.021
1470.1000, -84.306
1470.2000, -89.958
1470.3000, -82.238
1470.4000, -82.697
1470.5000, -81.833
1470.6000, -83.211
1470.7000, -82.611
1470.8000, -80.626
1470.9000, -80.962
1471.0000, -79.179
1471.1000, -79.286
1471.2000, -78.911
1471.3000, -77.393
1471.4000, -79.292
1471.5000, -76.736
1471.6000, -76.698
1471.7000, -76.923
1471.8000, -75.718
1471.9000, -75.591
1472.0000, -75.974
1472.1000, -74.796
1472.2000, -74.816
1472.3000, -74.250
1472.4000, -74.135
1472.5000, -73.976
1472.6000, -74.136
1472.7000, -73.868
1472.8000, -73.305
1472.9000, -73.133
1473.0000, -72.878
1473.1000, -73.058
1473.2000, -72.618
1473.3000, -72.811
1473.4000, -72.579
1473.5000, -72.383
1473.6000, -72.353
1473.7000, -72.976
1473.8000, -72.471
1473.9000, -72.752
1474.0000, -72.804
1474.1000, -72.843
1474.2000, -72.558
1474.3000, -72.918
1474.4000, -72.820
1474.5000, -73.541
1474.6000, -72.997
1474.7000, -72.980
1474.8000, -73.409
1474.9000, -73.937
1475.0000, -73.607
1475.1000, -74.298
1475.2000, -74.484
1475.3000, -74.945
1475.4000, -74.965
1475.5000, -75.776
1475.6000, -76.137
1475.7000, -75.988
1475.8000, -76.918
1475.9000, -76.865
1476.0000, -77.052
1476.1000, -77.782
1476.2000, -77.914
1476.3000, -78.472
1476.4000, -79.281
1476.5000, -81.623
1476.6000, -79.645
1476.7000, -81.317
1476.8000, -82.154
1476.9000, -82.196
1477.0000, -83.605
1477.1000, -82.984
1477.2000, -80.625
1477.3000, -88.016
1477.4000,-100.184
1477.5000, -84.996
1477.6000, -81.492
1477.7000, -83.763
1477.8000, -81.246
1477.9000, -82.757
1478.0000, -80.284
1478.1000, -81.846
1478.2000, -80.489
1478.3000, -78.707
1478.4000, -79.031
1478.5000, -77.922
1478.6000, -77.793
1478.7000, -77.878
1478.8000, -77.158
1478.9000, -76.783
1479.0000, -76.175
1479.1000, -76.042
1479.2000, -75.019
1479.3000, -74.682
1479.4000, -74.956
1479.5000, -74.619
1479.6000, -74.174
1479.7000, -74.152
1479.8000, -73.420
1479.9000, -73.168
1480.0000, -72.990
1480.1000, -72.911
1480.2000, -72.723
1480.3000, -72.377
1480.4000, -72.528
1480.5000, -72.504
1480.6000, -72.477
1480.7000, -72.302
1480.8000, -72.389
1480.9000, -72.180
1481.0000, -71.980
1481.1000, -71.954
1481.2000, -72.126
1481.3000, -72.667
1481.4000, -72.300
1481.5000, -72.443
1481.6000, -72.317
1481.7000, -72.544
1481.8000, -72.698
1481.9000, -72.957
1482.0000, -73.021
1482.1000, -72.765
1482.2000, -73.245
1482.3000, -73.835
1482.4000, -73.918
1482.5000, -74.092
1482.6000, -74.486
1482.7000, -74.921
1482.8000, -74.875
1482.9000, -75.246
1483.0000, -76.408
1483.1000, -75.912
1483.2000, -76.190
1483.3000, -76.891
1483.4000, -77.207
1483.5000, -77.648
1483.6000, -78.963
1483.7000, -78.496
1483.8000, -79.677
1483.9000, -79.252
1484.0000, -84.536
1484.1000, -80.292
1484.2000, -82.425
1484.3000, -83.651
1484.4000, -82.939
1484.5000, -81.323
1484.6000, -85.896
1484.7000, -87.258
1484.8000, -90.614
1484.9000, -84.051
1485.0000, -83.129
1485.1000, -81.432
1485.2000, -86.396
1485.3000, -80.775
1485.4000, -80.379
1485.5000, -78.920
1485.6000, -79.980
1485.7000, -77.824
1485.8000, -78.868
1485.9000, -78.242
1486.0000, -77.287
1486.1000, -77.112
1486.2000, -76.065
1486.3000, -75.599
1486.4000, -75.588
1486.5000, -75.222
1486.6000, -74.430
1486.7000, -74.439
1486.8000, -73.358
1486.9000, -73.935
1487.0000, -73.156
1487.1000, -73.228
1487.2000, -72.714
1487.3000, -73.090
1487.4000, -72.194
1487.5000, -72.309
1487.6000, -72.259
1487.7000, -72.118
1487.8000, -71.780
1487.9000, -71.950
1488.0000, -71.828
1488.1000, -71.473
1488.2000, -72.071
1488.3000, -71.894
1488.4000, -71.542
1488.5000, -71.681
1488.6000, -71.780
1488.7000, -71.895
1488.8000, -71.763
1488.9000, -72.032
1489.0000, -71.936
1489.1000, -71.806
1489.2000, -72.125
1489.3000, -72.365
1489.4000, -72.309
1489.5000, -72.818
1489.6000, -72.587
1489.7000, -72.877
1489.8000, -73.283
1489.9000, -73.339
1490.0000, -73.751
1490.1000, -74.077
1490.2000, -74.367
1490.3000, -75.216
1490.4000, -75.823
1490.5000, -75.361
1490.6000, -76.429
1490.7000, -77.003
1490.8000, -76.666
1490.9000, -77.487
1491.0000, -77.933
1491.1000, -78.816
1491.2000, -78.931
1491.3000, -79.863
1491.4000, -81.998
1491.5000, -79.121
1491.6000, -82.344
1491.7000, -82.218
1491.8000, -84.054
1491.9000, -85.521
1492.0000, -84.977
1492.1000, -83.218
1492.2000, -88.558
1492.3000, -85.627
1492.4000, -82.452
1492.5000, -81.724
1492.6000, -82.051
1492.7000, -86.001
1492.8000, -80.593
1492.9000, -79.868
1493.0000, -79.244
1493.1000, -78.337
1493.2000, -77.483
1493.3000, -77.500
1493.4000, -77.191
1493.5000, -76.021
1493.6000, -75.813
1493.7000, -74.880
1493.8000, -75.017
1493.9000, -74.186
1494.0000, -74.430
1494.1000, -74.322
1494.2000, -72.996
1494.3000, -72.744
1494.4000, -72.647
1494.5000, -72.606
1494.6000, -72.151
1494.7000, -72.101
1494.8000, -72.142
1494.9000, -71.755
1495.0000, -71.561
1495.1000, -71.508
1495.2000, -71.249
1495.3000, -71.369
1495.4000, -71.508
1495.5000, -71.158
1495.6000, -71.115
1495.7000, -70.852
1495.8000, -71.136
1495.9000, -71.265
1496.0000, -70.717
1496.1000, -71.219
1496.2000, -70.932
1496.3000, -71.125
1496.4000, -71.210
1496.5000, -71.331
1496.6000, -71.601
1496.7000, -71.455
1496.8000, -71.540
1496.9000, -72.106
1497.0000, -71.911
1497.1000, -71.931
1497.2000, -71.878
1497.3000, -72.842
1497.4000, -72.583
1497.5000, -73.143
1497.6000, -72.953
1497.7000, -73.678
1497.8000, -73.924
1497.9000, -74.843
1498.0000, -74.793
1498.1000, -74.994
1498.2000, -75.404
1498.3000, -76.791
1498.4000, -76.677
1498.5000, -77.176
1498.6000, -78.097
1498.7000, -78.596
1498.8000, -78.724
1498.9000, -79.990
1499.0000, -81.421
1499.1000, -82.234
1499.2000, -82.286
1499.3000, -81.441
1499.4000, -83.651
1499.5000, -84.658
1499.6000, -85.078
1499.7000, -82.751
1499.8000, -83.421
1499.9000, -82.413
1500.0000, -82.632
1500.1000, -81.413
1500.2000, -80.059
1500.3000, -80.643
1500.4000, -79.301
1500.5000, -78.182
1500.6000, -77.596
1500.7000, -77.279
1500.8000, -76.218
1500.9000, -76.211
1501.0000, -75.446
1501.1000, -74.814
1501.2000, -74.676
1501.3000, -74.240
1501.4000, -73.555
1501.5000, -73.086
1501.6000, -73.005
1501.7000, -72.780
1501.8000, -72.324
1501.9000, -72.085
1502.0000, -71.834
1502.1000, -71.600
1502.2000, -71.099
1502.3000, -71.079
1502.4000, -71.077
1502.5000, -70.823
1502.6000, -70.834
1502.7000, -70.641
1502.8000, -70.220
1502.9000, -70.599
1503.0000, -70.360
1503.1000, -70.311
1503.2000, -69.992
1503.3000, -70.408
1503.4000, -69.895
1503.5000, -70.226
1503.6000, -70.039
1503.7000, -70.199
1503.8000, -70.550
1503.9000, -70.183
1504.0000, -70.258
1504.1000, -70.717
1504.2000, -70.516
1504.3000, -70.529
1504.4000, -70.557
1504.5000, -71.202
1504.6000, -71.159
1504.7000, -71.473
1504.8000, -72.040
1504.9000, -71.755
1505.0000, -71.782
1505.1000, -72.359
1505.2000, -72.607
1505.3000, -72.867
1505.4000, -72.880
1505.5000, -73.596
1505.6000, -73.854
1505.7000, -74.768
1505.8000, -75.536
1505.9000, -75.696
1506.0000, -75.755
1506.1000, -76.015
1506.2000, -77.042
1506.3000, -78.023
1506.4000, -78.630
1506.5000, -79.210
1506.6000, -79.937
1506.7000, -80.777
1506.8000, -81.759
1506.9000, -83.156
1507.0000, -81.731
1507.1000, -87.206
1507.2000, -83.687
1507.3000, -81.702
1507.4000, -81.289
1507.5000, -82.310
1507.6000, -82.198
1507.7000, -80.124
1507.8000, -79.664
1507.9000, -80.124
1508.0000, -78.384
1508.1000, -77.192
1508.2000, -76.930
1508.3000, -76.084
1508.4000, -75.636
1508.5000, -75.171
1508.6000, -74.800
1508.7000, -73.946
1508.8000, -73.779
1508.9000, -73.146
1509.0000, -72.526
1509.1000, -72.293
1509.2000, -72.025
1509.3000, -71.967
1509.4000, -71.364
1509.5000, -71.185
1509.6000, -70.963
1509.7000, -70.787
1509.8000, -70.553
1509.9000, -70.506
1510.0000, -70.087
1510.1000, -69.998
1510.2000, -69.746
1510.3000, -69.596
1510.4000, -69.697
1510.5000, -69.583
1510.6000, -69.441
1510.7000, -69.284
1510.8000, -69.366
1510.9000, -69.252
1511.0000, -69.232
1511.1000, -68.984
1511.2000, -69.461
1511.3000, -69.220
1511.4000, -69.373
1511.5000, -69.360
1511.6000, -69.518
1511.7000, -69.493
1511.8000, -69.802
1511.9000, -69.715
1512.0000, -69.940
1512.1000, -70.141
1512.2000, -70.092
1512.3000, -70.550
1512.4000, -70.749
1512.5000, -70.842
1512.6000, -70.950
1512.7000, -71.358
1512.8000, -71.619
1512.9000, -72.087
1513.0000, -72.340
1513.1000, -72.752
1513.2000, -73.139
1513.3000, -73.626
1513.4000, -73.934
1513.5000, -74.797
1513.6000, -74.634
1513.7000, -75.227
1513.8000, -76.553
1513.9000, -76.781
1514.0000, -77.356
1514.1000, -77.828
1514.2000, -79.665
1514.3000, -81.877
1514.4000, -79.695
1514.5000, -83.191
1514.6000, -82.629
1514.7000, -81.300
1514.8000, -82.173
1514.9000, -80.889
1515.0000, -83.239
1515.1000, -82.197
1515.2000, -81.700
1515.3000, -81.047
1515.4000, -79.548
1515.5000, -78.386
1515.6000, -77.713
1515.7000, -77.231
1515.8000, -75.775
1515.9000, -75.858
1516.0000, -75.058
1516.1000, -74.871
1516.2000, -74.493
1516.3000, -73.255
1516.4000, -72.634
1516.5000, -72.559
1516.6000, -71.986
1516.7000, -71.686
1516.8000, -71.271
1516.9000, -71.154
1517.0000, -70.923
1517.1000, -70.501
1517.2000, -70.333
1517.3000, -70.166
1517.4000, -69.719
1517.5000, -69.757
1517.6000, -69.539
1517.7000, -69.411
1517.8000, -69.098
1517.9000, -69.036
1518.0000, -68.961
1518.1000, -68.847
1518.2000, -68.924
1518.3000, -68.781
1518.4000, -68.511
1518.5000, -68.466
1518.6000, -68.753
1518.7000, -68.524
1518.8000, -68.525
1518.9000, -68.461
1519.0000, -68.603
1519.1000, -68.689
1519.2000, -68.800
1519.3000, -68.669
1519.4000, -68.732
1519.5000, -69.098
1519.6000, -69.150
1519.7000, -69.333
1519.8000, -69.433
1519.9000, -69.771
1520.0000, -69.764
1520.1000, -69.919
1520.2000, -70.237
1520.3000, -70.411
1520.4000, -70.510
1520.5000, -71.326
1520.6000, -71.142
1520.7000, -71.447
1520.8000, -72.245
1520.9000, -72.336
1521.0000, -72.448
1521.1000, -73.207
1521.2000, -74.127
1521.3000, -74.625
1521.4000, -74.870
1521.5000, -75.799
1521.6000, -76.328
1521.7000, -77.073
1521.8000, -77.931
1521.9000, -78.900
1522.0000, -79.310
1522.1000, -81.013
1522.2000, -82.384
1522.3000, -81.901
1522.4000, -81.368
1522.5000, -83.104
1522.6000, -86.164
1522.7000, -81.259
1522.8000, -82.443
1522.9000, -81.874
1523.0000, -80.509
1523.1000, -78.839
1523.2000, -78.570
1523.3000, -78.218
1523.4000, -76.767
1523.5000, -76.401
1523.6000, -74.998
1523.7000, -75.132
1523.8000, -74.317
1523.9000, -73.850
1524.0000, -73.064
1524.1000, -72.412
1524.2000, -72.141
1524.3000, -71.818
1524.4000, -71.525
1524.5000, -71.023
1524.6000, -70.953
1524.7000, -70.433
1524.8000, -70.029
1524.9000, -69.745
1525.0000, -69.846
1525.1000, -69.419
1525.2000, -69.381
1525.3000, -69.133
1525.4000, -69.180
1525.5000, -68.779
1525.6000, -68.512
1525.7000, -68.449
1525.8000, -68.360
1525.9000, -68.564
1526.0000, -68.167
1526.1000, -68.266
1526.2000, -68.398
1526.3000, -68.349
1526.4000, -68.260
1526.5000, -68.111
1526.6000, -68.084
1526.7000, -68.385
1526.8000, -68.247
1526.9000, -68.332
1527.0000, -68.549
1527.1000, -68.505
1527.2000, -68.621
1527.3000, -68.724
1527.4000, -68.921
1527.5000, -69.102
1527.6000, -68.952
1527.7000, -69.333
1527.8000, -69.600
1527.9000, -69.744
1528.0000, -70.199
1528.1000, -70.322
1528.2000, -70.616
1528.3000, -70.905
1528.4000, -70.849
1528.5000, -71.524
1528.6000, -71.835
1528.7000, -71.992
1528.8000, -72.474
1528.9000, -73.015
1529.0000, -73.586
1529.1000, -74.144
1529.2000, -74.919
1529.3000, -75.628
1529.4000, -75.891
1529.5000, -76.693
1529.6000, -76.674
1529.7000, -78.400
1529.8000, -80.211
1529.9000, -79.805
1530.0000, -81.781
1530.1000, -81.986
1530.2000, -83.272
1530.3000, -81.409
1530.4000, -81.727
1530.5000, -83.717
1530.6000, -82.306
1530.7000, -82.446
1530.8000, -81.147
1530.9000, -80.043
1531.0000, -78.856
1531.1000, -78.047
1531.2000, -76.678
1531.3000, -75.746
1531.4000, -75.313
1531.5000, -74.860
1531.6000, -74.178
1531.7000, -73.451
1531.8000, -73.582
1531.9000, -72.449
1532.0000, -72.123
1532.1000, -71.850
1532.2000, -71.321
1532.3000, -71.076
1532.4000, -70.544
1532.5000, -70.376
1532.6000, -70.032
1532.7000, -69.910
1532.8000, -69.697
1532.9000, -69.314
1533.0000, -69.088
1533.1000, -69.138
1533.2000, -68.719
1533.3000, -68.748
1533.4000, -68.610
1533.5000, -68.842
1533.6000, -68.245
1533.7000, -68.349
1533.8000, -68.240
1533.9000, -68.329
1534.0000, -68.149
1534.1000, -68.111
1534.2000, -67.972
1534.3000, -68.199
1534.4000, -68.241
1534.5000, -68.224
1534.6000, -68.078
1534.7000, -68.226
1534.8000, -68.444
1534.9000, -68.080
1535.0000, -68.121
1535.1000, -68.629
1535.2000, -68.725
1535.3000, -68.921
1535.4000, -69.005
1535.5000, -69.119
1535.6000, -69.298
1535.7000, -69.509
1535.8000, -69.647
1535.9000, -69.994
1536.0000, -70.254
1536.1000, -70.217
1536.2000, -71.177
1536.3000, -71.299
1536.4000, -71.262
1536.5000, -71.956
1536.6000, -72.338
1536.7000, -72.665
1536.8000, -73.225
1536.9000, -73.345
1537.0000, -74.343
1537.1000, -74.993
1537.2000, -75.613
1537.3000, -75.734
1537.4000, -77.032
1537.5000, -77.712
1537.6000, -80.004
1537.7000, -79.588
1537.8000, -81.404
1537.9000, -82.641
1538.0000, -81.914
1538.1000, -82.223
1538.2000, -82.501
1538.3000, -83.582
1538.4000, -80.616
1538.5000, -84.181
1538.6000, -80.945
1538.7000, -79.410
1538.8000, -79.780
1538.9000, -79.976
1539.0000, -77.473
1539.1000, -76.303
1539.2000, -76.530
1539.3000, -75.324
1539.4000, -74.595
1539.5000, -74.419
1539.6000, -73.545
1539.7000, -73.202
1539.8000, -72.689
1539.9000, -72.386
1540.0000, -72.014
1540.1000, -71.484
1540.2000, -71.390
1540.3000, -71.129
1540.4000, -70.671
1540.5000, -70.173
1540.6000, -70.385
1540.7000, -69.920
1540.8000, -69.785
1540.9000, -69.331
1541.0000, -69.423
1541.1000, -68.961
1541.2000, -69.233
1541.3000, -68.905
1541.4000, -68.737
1541.5000, -68.544
1541.6000, -68.434
1541.7000, -68.723
1541.8000, -68.337
1541.9000, -68.253
1542.0000, -68.450
1542.1000, -68.410
1542.2000, -68.295
1542.3000, -68.327
1542.4000, -68.413
1542.5000, -68.532
1542.6000, -68.320
1542.7000, -68.600
1542.8000, -68.909
1542.9000, -68.695
1543.0000, -68.660
1543.1000, -69.081
1543.2000, -69.060
1543.3000, -69.267
1543.4000, -69.233
1543.5000, -69.537
1543.6000, -69.933
1543.7000, -69.803
1543.8000, -69.969
1543.9000, -70.675
1544.0000, -70.684
1544.1000, -71.200
1544.2000, -71.145
1544.3000, -71.895
1544.4000, -72.163
1544.5000, -72.553
1544.6000, -72.476
1544.7000, -73.794
1544.8000, -73.796
1544.9000, -74.188
1545.0000, -74.763
1545.1000, -75.438
1545.2000, -76.257
1545.3000, -77.225
1545.4000, -77.792
1545.5000, -78.852
1545.6000, -80.051
1545.7000, -81.370
1545.8000, -81.993
1545.9000, -82.860
1546.0000, -82.151
1546.1000, -81.112
1546.2000, -85.020
1546.3000, -81.123
1546.4000, -83.495
1546.5000, -83.532
1546.6000, -78.425
1546.7000, -80.883
1546.8000, -79.213
1546.9000, -78.456
1547.0000, -77.301
1547.1000, -77.093
1547.2000, -76.174
1547.3000, -75.660
1547.4000, -75.035
1547.5000, -74.400
1547.6000, -74.046
1547.7000, -73.472
1547.8000, -73.498
1547.9000, -72.519
1548.0000, -71.991
1548.1000, -71.746
1548.2000, -71.408
1548.3000, -70.979
1548.4000, -71.131
1548.5000, -70.327
1548.6000, -70.308
1548.7000, -70.488
1548.8000, -69.940
1548.9000, -69.864
1549.0000, -69.679
1549.1000, -69.393
1549.2000, -69.445
1549.3000, -69.135
1549.4000, -69.255
1549.5000, -68.899
1549.6000, -69.110
1549.7000, -68.803
1549.8000, -68.707
1549.9000, -68.884
1550.0000, -68.593
1550.1000, -68.441
1550.2000, -68.681
1550.3000, -68.965
1550.4000, -68.585
1550.5000, -68.748
1550.6000, -68.753
1550.7000, -68.744
1550.8000, -68.934
1550.9000, -68.977
1551.0000, -69.131
1551.1000, -69.383
1551.2000, -69.272
1551.3000, -69.459
1551.4000, -69.808
1551.5000, -70.044
1551.6000, -70.064
1551.7000, -70.134
1551.8000, -70.506
1551.9000, -70.677
1552.0000, -70.852
1552.1000, -71.197
1552.2000, -71.557
1552.3000, -71.837
1552.4000, -72.191
1552.5000, -72.570
1552.6000, -73.298
1552.7000, -73.916
1552.8000, -73.875
1552.9000, -75.144
1553.0000, -75.435
1553.1000, -75.540
1553.2000, -76.981
1553.3000, -76.177
1553.4000, -77.972
1553.5000, -78.795
1553.6000, -79.315
1553.7000, -80.059
1553.8000, -79.734
1553.9000, -83.216
1554.0000, -83.721
1554.1000, -83.102
1554.2000, -84.181
1554.3000, -83.499
1554.4000, -81.196
1554.5000, -82.364
1554.6000, -81.992
1554.7000, -80.878
1554.8000, -80.613
1554.9000, -80.224
1555.0000, -79.072
1555.1000, -76.733
1555.2000, -76.560
1555.3000, -75.713
1555.4000, -75.891
1555.5000, -74.737
1555.6000, -74.662
1555.7000, -74.413
1555.8000, -73.636
1555.9000, -72.927
1556.0000, -72.745
1556.1000, -71.836
1556.2000, -71.801
1556.3000, -71.821
1556.4000, -71.329
1556.5000, -71.002
1556.6000, -70.745
1556.7000, -70.502
1556.8000, -70.337
1556.9000, -70.115
1557.0000, -69.966
1557.1000, -70.026
1557.2000, -69.544
1557.3000, -69.675
1557.4000, -69.340
1557.5000, -69.251
1557.6000, -69.153
1557.7000, -69.005
1557.8000, -69.036
1557.9000, -69.121
1558.0000, -68.882
1558.1000, -68.931
1558.2000, -69.283
1558.3000, -69.004
1558.4000, -69.066
1558.5000, -68.863
1558.6000, -69.102
1558.7000, -69.073
1558.8000, -69.077
1558.9000, -69.020
1559.0000, -69.233
1559.1000, -69.203
1559.2000, -69.375
1559.3000, -69.472
1559.4000, -69.872
1559.5000, -69.960
1559.6000, -70.064
1559.7000, -70.205
1559.8000, -70.451
1559.9000, -70.690
1560.0000, -71.087
1560.1000, -71.192
1560.2000, -71.292
1560.3000, -71.752
1560.4000, -71.825
1560.5000, -72.175
1560.6000, -72.838
1560.7000, -72.829
1560.8000, -73.841
1560.9000, -74.019
1561.0000, -74.770
1561.1000, -75.270
1561.2000, -75.979
1561.3000, -75.698
1561.4000, -77.151
1561.5000, -77.693
1561.6000, -77.951
1561.7000, -79.037
1561.8000, -79.412
1561.9000, -83.822
1562.0000, -80.524
1562.1000, -80.860
1562.2000, -82.272
1562.3000, -83.571
1562.4000, -82.201
1562.5000, -87.353
1562.6000, -81.415
1562.7000, -83.619
1562.8000, -82.169
1562.9000, -81.391
1563.0000, -79.390
1563.1000, -78.996
1563.2000, -77.466
1563.3000, -78.106
1563.4000, -76.407
1563.5000, -75.992
1563.6000, -75.643
1563.7000, -75.231
1563.8000, -75.096
1563.9000, -74.425
1564.0000, -73.467
1564.1000, -73.315
1564.2000, -73.018
1564.3000, -72.788
1564.4000, -72.086
1564.5000, -71.733
1564.6000, -71.610
1564.7000, -71.289
1564.8000, -71.337
1564.9000, -70.706
1565.0000, -70.748
1565.1000, -70.378
1565.2000, -70.321
1565.3000, -70.229
1565.4000, -70.169
1565.5000, -69.878
1565.6000, -69.890
1565.7000, -69.596
1565.8000, -69.632
1565.9000, -69.439
1566.0000, -69.510
1566.1000, -69.243
1566.2000, -69.199
1566.3000, -69.220
1566.4000, -69.372
1566.5000, -69.271
1566.6000, -69.613
1566.7000, -69.368
1566.8000, -69.366
1566.9000, -69.507
1567.0000, -69.348
1567.1000, -69.799
1567.2000, -69.697
1567.3000, -69.784
1567.4000, -69.924
1567.5000, -70.003
1567.6000, -70.040
1567.7000, -70.317
1567.8000, -70.457
1567.9000, -70.635
1568.0000, -70.847
1568.1000, -71.124
1568.2000, -71.529
1568.3000, -71.382
1568.4000, -72.112
1568.5000, -72.046
1568.6000, -72.436
1568.7000, -72.712
1568.8000, -73.353
1568.9000, -74.084
1569.0000, -73.578
1569.1000, -74.189
1569.2000, -75.120
1569.3000, -75.782
1569.4000, -76.387
1569.5000, -76.670
1569.6000, -77.237
1569.7000, -79.011
1569.8000, -78.811
1569.9000, -80.737
1570.0000, -80.855
1570.1000, -81.451
1570.2000, -81.582
1570.3000, -80.741
1570.4000, -87.828
1570.5000, -86.226
1570.6000, -82.562
1570.7000, -81.588
1570.8000, -82.757
1570.9000, -84.707
1571.0000, -81.636
1571.1000, -81.793
1571.2000, -79.679
1571.3000, -80.668
1571.4000, -78.264
1571.5000, -78.423
1571.6000, -78.049
1571.7000, -77.366
1571.8000, -76.844
1571.9000, -75.467
1572.0000, -75.597
1572.1000, -74.978
1572.2000, -74.599
1572.3000, -74.051
1572.4000, -73.756
1572.5000, -73.519
1572.6000, -72.677
1572.7000, -72.915
1572.8000, -72.124
1572.9000, -71.980
1573.0000, -72.126
1573.1000, -71.427
1573.2000, -71.408
1573.3000, -71.217
1573.4000, -70.889
1573.5000, -70.733
1573.6000, -70.731
1573.7000, -70.556
1573.8000, -70.345
1573.9000, -70.079
1574.0000, -69.836
1574.1000, -70.025
1574.2000, -70.103
1574.3000, -69.997
1574.4000, -69.855
1574.5000, -69.694
1574.6000, -69.834
1574.7000, -69.828
1574.8000, -69.798
1574.9000, -70.188
1575.0000, -70.129
1575.1000, -69.755
1575.2000, -69.909
1575.3000, -70.048
1575.4000, -70.058
1575.5000, -69.939
1575.6000, -70.746
1575.7000, -70.513
1575.8000, -70.812
1575.9000, -71.111
1576.0000, -70.965
1576.1000, -71.274
1576.2000, -71.250
1576.3000, -71.519
1576.4000, -71.316
1576.5000, -71.959
1576.6000, -72.248
1576.7000, -73.019
1576.8000, -72.721
1576.9000, -73.196
1577.0000, -73.467
1577.1000, -74.180
1577.2000, -74.367
1577.3000, -74.497
1577.4000, -75.130
1577.5000, -75.363
1577.6000, -76.481
1577.7000, -78.047
1577.8000, -77.622
1577.9000, -77.505
1578.0000, -77.787
1578.1000, -79.267
1578.2000, -81.236
1578.3000, -79.479
1578.4000, -81.893
1578.5000, -80.680
1578.6000, -83.818
1578.7000, -82.716
1578.8000, -82.600
1578.9000, -89.329
1579.0000, -82.792
1579.1000, -83.201
1579.2000, -82.505
1579.3000, -85.105
1579.4000, -80.441
1579.5000, -80.355
1579.6000, -79.022
1579.7000, -79.465
1579.8000, -78.526
1579.9000, -78.756
1580.0000, -78.082
1580.1000, -76.770
1580.2000, -76.635
1580.3000, -75.561
1580.4000, -75.612
1580.5000, -75.140
1580.6000, -74.127
1580.7000, -74.561
1580.8000, -73.810
1580.9000, -73.638
1581.0000, -73.308
1581.1000, -72.883
1581.2000, -72.771
1581.3000, -72.218
1581.4000, -72.313
1581.5000, -71.805
1581.6000, -71.587
1581.7000, -71.247
1581.8000, -71.493
1581.9000, -71.102
1582.0000, -71.054
1582.1000, -70.679
1582.2000, -70.911
1582.3000, -70.969
1582.4000, -70.619
1582.5000, -70.651
1582.6000, -70.550
1582.7000, -70.292
1582.8000, -70.583
1582.9000, -70.574
1583.0000, -70.402
1583.1000, -70.512
1583.2000, -70.427
1583.3000, -70.623
1583.4000, -70.559
1583.5000, -70.646
1583.6000, -70.393
1583.7000, -70.592
1583.8000, -70.900
1583.9000, -71.307
1584.0000, -70.965
1584.1000, -71.020
1584.2000, -71.340
1584.3000, -71.386
1584.4000, -71.985
1584.5000, -71.629
1584.6000, -71.819
1584.7000, -72.525
1584.8000, -72.361
1584.9000, -72.556
1585.0000, -73.093
1585.1000, -73.202
1585.2000, -73.926
1585.3000, -73.953
1585.4000, -73.948
1585.5000, -74.524
1585.6000, -74.785
1585.7000, -75.673
1585.8000, -76.009
1585.9000, -76.035
1586.0000, -76.627
1586.1000, -78.199
1586.2000, -77.876
1586.3000, -78.575
1586.4000, -80.711
1586.5000, -79.854
1586.6000, -79.176
1586.7000, -81.508
1586.8000, -83.168
1586.9000, -82.065
1587.0000, -85.292
1587.1000, -81.575
1587.2000, -87.734
1587.3000, -87.059
1587.4000, -85.530
1587.5000, -86.551
1587.6000, -82.084
1587.7000, -83.077
1587.8000, -80.778
1587.9000, -80.550
1588.0000, -79.656
1588.1000, -79.977
1588.2000, -78.831
1588.3000, -78.571
1588.4000, -78.372
1588.5000, -77.344
1588.6000, -76.594
1588.7000, -76.398
1588.8000, -76.189
1588.9000, -75.256
1589.0000, -75.838
1589.1000, -73.960
1589.2000, -74.372
1589.3000, -74.157
1589.4000, -73.255
1589.5000, -73.652
1589.6000, -73.067
1589.7000, -72.604
1589.8000, -72.718
1589.9000, -72.367
1590.0000, -71.827
1590.1000, -71.976
1590.2000, -71.497
1590.3000, -71.933
1590.4000, -71.606
1590.5000, -71.259
1590.6000, -71.425
1590.7000, -71.199
1590.8000, -71.016
1590.9000, -71.242
1591.0000, -71.005
1591.1000, -70.647
1591.2000, -71.117
1591.3000, -70.877
1591.4000, -70.845
1591.5000, -71.047
1591.6000, -70.995
1591.7000, -71.076
1591.8000, -70.850
1591.9000, -71.104
1592.0000, -71.203
1592.1000, -71.233
1592.2000, -71.174
1592.3000, -71.166
1592.4000, -71.486
1592.5000, -71.552
1592.6000, -71.761
1592.7000, -71.599
1592.8000, -72.451
1592.9000, -72.076
1593.0000, -72.342
1593.1000, -72.146
1593.2000, -72.933
1593.3000, -72.738
1593.4000, -73.147
1593.5000, -73.656
1593.6000, -74.093
1593.7000, -74.086
1593.8000, -74.767
1593.9000, -74.845
1594.0000, -76.287
1594.1000, -74.872
1594.2000, -75.930
1594.3000, -76.265
1594.4000, -76.550
1594.5000, -77.601
1594.6000, -77.603
1594.7000, -78.335
1594.8000, -78.702
1594.9000, -78.582
1595.0000, -79.677
1595.1000, -81.544
1595.2000, -81.173
1595.3000, -85.137
1595.4000, -81.826
1595.5000, -82.212
1595.6000, -87.830
1595.7000, -82.164
1595.8000, -82.951
1595.9000, -87.390
1596.0000, -82.457
1596.1000, -80.856
1596.2000, -83.108
1596.3000, -83.103
1596.4000, -83.700
1596.5000, -79.581
1596.6000, -78.791
1596.7000, -79.341
1596.8000, -78.921
1596.9000, -77.659
1597.0000, -78.001
1597.1000, -76.689
1597.2000, -76.637
1597.3000, -75.937
1597.4000, -76.140
1597.5000, -75.545
1597.6000, -75.140
1597.7000, -74.473
1597.8000, -74.163
1597.9000, -74.141
1598.0000, -73.424
1598.1000, -73.551
1598.2000, -74.041
1598.3000, -72.878
1598.4000, -72.818
1598.5000, -72.573
1598.6000, -72.515
1598.7000, -72.503
1598.8000, -72.045
1598.9000, -71.785
1599.0000, -71.432
1599.1000, -71.509
1599.2000, -71.623
1599.3000, -71.486
1599.4000, -71.388
1599.5000, -71.648
1599.6000, -71.554
1599.7000, -71.491
1599.8000, -71.149
1599.9000, -71.530
1600.0000, -70.702
1600.1000, -71.136
1600.2000, -71.331
1600.3000, -71.432
1600.4000, -71.426
1600.5000, -71.385
1600.6000, -71.595
1600.7000, -71.261
1600.8000, -71.569
1600.9000, -71.830
1601.0000, -72.187
1601.1000, -71.948
1601.2000, -72.066
1601.3000, -72.138
1601.4000, -72.572
1601.5000, -72.989
1601.6000, -72.380
1601.7000, -73.004
1601.8000, -72.960
1601.9000, -73.284
1602.0000, -74.022
1602.1000, -73.923
1602.2000, -74.209
1602.3000, -74.476
1602.4000, -74.519
1602.5000, -74.993
1602.6000, -76.369
1602.7000, -75.661
1602.8000, -75.771
1602.9000, -77.126
1603.0000, -76.515
1603.1000, -77.307
1603.2000, -77.856
1603.3000, -78.907
1603.4000, -79.230
1603.5000, -77.728
1603.6000, -80.699
1603.7000, -80.896
1603.8000, -80.943
1603.9000, -84.676
1604.0000, -85.312
1604.1000, -84.043
1604.2000, -80.955
1604.3000, -85.862
1604.4000, -82.739
1604.5000,-210.000
1604.6000, -81.416
1604.7000, -87.431
1604.8000, -81.486
1604.9000, -87.620
1605.0000, -80.447
1605.1000, -80.488
1605.2000, -80.212
1605.3000, -79.529
1605.4000, -78.613
1605.5000, -78.633
1605.6000, -77.876
1605.7000, -77.844
1605.8000, -76.152
1605.9000, -76.493
1606.0000, -76.107
1606.1000, -75.626
1606.2000, -75.039
1606.3000, -75.253
1606.4000, -74.438
1606.5000, -74.730
1606.6000, -74.376
1606.7000, -74.082
1606.8000, -73.513
1606.9000, -73.696
1607.0000, -73.686
1607.1000, -73.065
1607.2000, -72.628
1607.3000, -72.584
1607.4000, -72.784
1607.5000, -72.564
1607.6000, -72.060
1607.7000, -72.136
1607.8000, -71.771
1607.9000, -71.911
1608.0000, -72.349
1608.1000, -71.511
1608.2000, -71.822
1608.3000, -71.533
1608.4000, -71.549
1608.5000, -71.508
1608.6000, -71.651
1608.7000, -71.418
1608.8000, -71.867
1608.9000, -71.189
1609.0000, -72.026
1609.1000, -71.501
1609.2000, -71.725
1609.3000, -71.642
1609.4000, -71.981
1609.5000, -71.932
1609.6000, -72.235
1609.7000, -72.312
1609.8000, -72.088
1609.9000, -72.623
1610.0000, -72.949
1610.1000, -73.232
1610.2000, -72.714
1610.3000, -73.200
1610.4000, -73.670
1610.5000, -74.015
1610.6000, -74.424
1610.7000, -74.311
1610.8000, -74.608
1610.9000, -74.407
1611.0000, -75.205
1611.1000, -74.808
1611.2000, -75.994
1611.3000, -75.431
1611.4000, -76.487
1611.5000, -77.115
1611.6000, -77.511
1611.7000, -77.809
1611.8000, -77.929
1611.9000, -77.107
1612.0000, -80.174
1612.1000, -79.230
1612.2000, -82.356
1612.3000, -80.605
1612.4000, -79.827
1612.5000, -81.709
1612.6000, -80.061
1612.7000, -84.885
1612.8000, -83.724
1612.9000, -84.114
1613.0000, -82.300
1613.1000, -81.732
1613.2000, -83.262
1613.3000, -82.514
1613.4000, -81.794
1613.5000, -82.261
1613.6000, -80.310
1613.7000, -88.399
1613.8000, -79.195
1613.9000, -77.855
1614.0000, -80.549
1614.1000, -78.115
1614.2000, -78.004
1614.3000, -78.289
1614.4000, -78.693
1614.5000, -76.215
1614.6000, -76.071
1614.7000, -76.564
1614.8000, -76.020
1614.9000, -75.531
1615.0000, -75.344
1615.1000, -74.988
1615.2000, -74.399
1615.3000, -74.651
1615.4000, -74.161
1615.5000, -74.180
1615.6000, -73.579
1615.7000, -73.972
1615.8000, -73.430
1615.9000, -73.254
1616.0000, -72.634
1616.1000, -73.437
1616.2000, -72.649
1616.3000, -72.708
1616.4000, -72.825
1616.5000, -72.229
1616.6000, -72.633
1616.7000, -71.904
1616.8000, -72.067
1616.9000, -71.806
1617.0000, -72.243
1617.1000, -72.035
1617.2000, -71.944
1617.3000, -72.223
1617.4000, -71.760
1617.5000, -71.887
1617.6000, -71.769
1617.7000, -71.895
1617.8000, -72.359
1617.9000, -72.003
1618.0000, -72.527
1618.1000, -72.139
1618.2000, -72.351
1618.3000, -72.236
1618.4000, -72.671
1618.5000, -72.626
1618.6000, -73.153
1618.7000, -73.035
1618.8000, -73.445
1618.9000, -72.863
1619.0000, -73.197
1619.1000, -73.143
1619.2000, -73.512
1619.3000, -74.962
1619.4000, -74.340
1619.5000, -75.352
1619.6000, -74.733
1619.7000, -75.290
1619.8000, -76.132
1619.9000, -76.199
1620.0000, -75.718
1620.1000, -76.914
1620.2000, -76.427
1620.3000, -76.637
1620.4000, -77.161
1620.5000, -77.123
1620.6000, -79.008
1620.7000, -77.868
1620.8000, -81.886
1620.9000, -79.893
1621.0000, -80.202
1621.1000, -80.315
1621.2000, -81.706
1621.3000, -80.655
1621.4000, -80.682
1621.5000, -83.156
1621.6000,-210.000
1621.7000, -80.187
1621.8000, -82.542
1621.9000, -85.467
1622.0000, -86.848
1622.1000, -82.613
1622.2000, -80.008
1622.3000, -83.385
1622.4000, -79.855
1622.5000, -79.915
1622.6000, -82.024
1622.7000, -80.674
1622.8000, -79.814
1622.9000, -78.470
1623.0000, -80.355
1623.1000, -76.747
1623.2000, -79.341
1623.3000, -77.199
1623.4000, -76.859
1623.5000, -75.822
1623.6000, -75.765
1623.7000, -77.035
1623.8000, -75.648
1623.9000, -75.891
1624.0000, -75.168
1624.1000, -74.649
1624.2000, -74.291
1624.3000, -74.024
1624.4000, -74.057
1624.5000, -74.093
1624.6000, -74.320
1624.7000, -73.892
1624.8000, -73.519
1624.9000, -73.787
1625.0000, -73.295
1625.1000, -73.102
1625.2000, -73.355
1625.3000, -72.883
1625.4000, -73.119
1625.5000, -73.205
1625.6000, -72.894
1625.7000, -72.695
1625.8000, -72.605
1625.9000, -72.412
1626.0000, -72.752
1626.1000, -72.834
1626.2000, -72.627
1626.3000, -73.225
1626.4000, -72.776
1626.5000, -72.520
1626.6000, -72.474
1626.7000, -72.961
1626.8000, -73.067
1626.9000, -72.716
1627.0000, -73.221
1627.1000, -72.589
1627.2000, -73.183
1627.3000, -72.602
1627.4000, -74.054
1627.5000, -74.090
1627.6000, -73.652
1627.7000, -73.848
1627.8000, -73.943
1627.9000, -74.423
1628.0000, -74.980
1628.1000, -75.135
1628.2000, -74.754
1628.3000, -75.057
1628.4000, -74.937
1628.5000, -75.876
1628.6000, -75.983
1628.7000, -76.316
1628.8000, -77.222
1628.9000, -76.815
1629.0000, -76.849
1629.1000, -76.019
1629.2000, -77.754
1629.3000, -78.900
1629.4000, -79.371
1629.5000, -78.098
1629.6000, -81.654
1629.7000, -77.331
1629.8000, -79.792
1629.9000, -80.604
1630.0000, -80.284
1630.1000, -84.437
1630.2000, -82.267
1630.3000, -80.301
1630.4000,-210.000
1630.5000, -80.161
1630.6000, -83.638
1630.7000, -82.703
1630.8000, -84.137
1630.9000, -82.869
1631.0000, -80.880
1631.1000, -83.117
1631.2000, -77.691
1631.3000, -82.742
1631.4000, -78.627
1631.5000, -79.079
1631.6000, -80.357
1631.7000, -79.777
1631.8000, -78.918
1631.9000, -80.583
1632.0000, -77.633
1632.1000, -76.260
1632.2000, -78.607
1632.3000, -77.289
1632.4000, -76.202
1632.5000, -77.187
1632.6000, -76.044
1632.7000, -75.574
1632.8000, -75.359
1632.9000, -75.647
1633.0000, -75.462
1633.1000, -74.833
1633.2000, -74.036
1633.3000, -75.404
1633.4000, -74.445
1633.5000, -73.897
1633.6000, -74.085
1633.7000, -74.128
1633.8000, -73.384
1633.9000, -73.814
1634.0000, -72.913
1634.1000, -73.712
1634.2000, -73.840
1634.3000, -72.946
1634.4000, -72.826
1634.5000, -73.412
1634.6000, -73.534
1634.7000, -72.955
1634.8000, -73.395
1634.9000, -73.101
1635.0000, -72.726
1635.1000, -72.687
1635.2000, -73.012
1635.3000, -73.622
1635.4000, -72.720
1635.5000, -73.732
1635.6000, -72.422
1635.7000, -73.492
1635.8000, -73.374
1635.9000, -72.852
1636.0000, -74.062
1636.1000, -73.232
1636.2000, -74.020
1636.3000, -73.515
1636.4000, -72.995
1636.5000, -73.463
1636.6000, -73.810
1636.7000, -73.397
1636.8000, -74.589
1636.9000, -75.722
1637.0000, -73.714
1637.1000, -75.060
1637.2000, -75.176
1637.3000, -75.354
1637.4000, -75.295
1637.5000, -75.379
1637.6000, -74.598
1637.7000, -76.021
1637.8000, -76.785
1637.9000, -76.115
1638.0000, -77.449
1638.1000, -76.941
1638.2000, -77.685
1638.3000, -77.005
1638.4000, -79.225
1638.5000, -78.817
1638.6000, -78.766
1638.7000, -82.180
1638.8000, -78.637
1638.9000, -78.758
1639.0000, -80.137
1639.1000, -81.378
1639.2000, -79.664
1639.3000, -80.693
1639.4000, -86.256
1639.5000, -82.247
1639.6000, -79.047
1639.7000, -79.062
1639.8000,-210.000
1639.9000, -81.943
1640.0000, -84.496
1640.1000, -80.298
1640.2000, -79.896
1640.3000, -79.494
1640.4000, -77.186
1640.5000, -78.637
1640.6000, -77.775
1640.7000,-210.000
1640.8000, -79.285
1640.9000, -75.491
1641.0000, -76.642
1641.1000, -75.795
1641.2000, -76.696
1641.3000, -77.113
1641.4000, -76.945
1641.5000, -76.506
1641.6000, -75.639
1641.7000, -76.707
1641.8000, -76.083
1641.9000, -75.741
1642.0000, -74.800
1642.1000, -76.476
1642.2000, -74.003
1642.3000, -74.171
1642.4000, -75.238
1642.5000, -74.298
1642.6000, -73.641
1642.7000, -74.129
1642.8000, -75.707
1642.9000, -74.080
1643.0000, -73.976
1643.1000, -73.238
1643.2000, -74.470
1643.3000, -72.991
1643.4000, -74.185
1643.5000, -73.076
1643.6000, -73.803
1643.7000, -73.251
1643.8000, -73.537
1643.9000, -73.063
1644.0000, -73.170
1644.1000, -72.999
1644.2000, -73.112
1644.3000, -73.069
1644.4000, -73.193
1644.5000, -73.019
1644.6000, -73.892
1644.7000, -73.470
1644.8000, -73.436
1644.9000, -73.881
1645.0000, -73.062
1645.1000, -73.751
1645.2000, -74.254
1645.3000, -72.706
1645.4000, -72.886
1645.5000, -73.813
1645.6000, -73.619
1645.7000, -74.412
1645.8000, -73.673
1645.9000, -75.049
1646.0000, -74.509
1646.1000, -76.953
1646.2000, -75.510
1646.3000, -75.422
1646.4000, -74.501
1646.5000, -77.108
1646.6000, -74.195
1646.7000, -75.701
1646.8000, -76.667
1646.9000, -76.395
1647.0000, -76.529
1647.1000, -75.756
1647.2000, -78.593
1647.3000, -76.786
1647.4000, -76.993
1647.5000, -75.508
1647.6000, -81.864
1647.7000, -76.642
1647.8000, -77.354
1647.9000, -81.426
1648.0000, -76.794
1648.1000, -81.410
1648.2000, -81.745
1648.3000, -79.689
1648.4000, -75.749
1648.5000, -75.337
1648.6000,-210.000
1648.7000, -81.033
1648.8000, -79.866
1648.9000, -76.994
1649.0000, -77.500
1649.1000, -75.496
1649.2000, -78.470
1649.3000, -80.654
1649.4000, -79.193
1649.5000, -81.771
1649.6000, -76.708
1649.7000, -77.582
1649.8000, -75.083
1649.9000, -76.317
1650.0000, -77.345
